# Wind Estimator
#
# Q = diag( 1.00000 1.00000 1.00000 0.01000 0.01000 0.01000 )
# R = diag( 0.25000 0.25000 0.25000 0.01000 0.01000 )
# ki = 0.00000
# alpha = 0.50000
# beta = 2.00000
#
p q r ax ay az vkx vky vkz va aoa q1 q2 q3 q4 phi theta u v w wx wy wz t
0.00104 -0.00171 -0.00021 -0.327 0.003 -9.707 0.00 -0.01 0.04 0.00 0.00000 0.14542 0.01725 -0.00092 0.98921 0.0031 -0.0344 -0.001 -0.111 0.321 -0.066 -0.111 -0.657 30410
0.00145 -0.00123 -0.00100 -0.300 -0.008 -9.673 -0.00 -0.02 0.13 0.00 0.00000 0.14568 0.01750 -0.00070 0.98917 0.0037 -0.0348 -0.000 -0.096 0.404 -0.065 -0.110 -0.659 30510
0.00314 -0.00124 -0.00126 -0.322 -0.001 -9.689 -0.01 -0.02 0.13 0.00 0.00000 0.14796 0.01769 -0.00072 0.98883 0.0038 -0.0352 -0.001 -0.096 0.404 -0.066 -0.111 -0.652 30610
0.00360 -0.00053 -0.00127 -0.314 0.006 -9.697 -0.02 -0.00 0.09 0.00 0.00000 0.14494 0.01802 -0.00108 0.98927 0.0030 -0.0359 -0.001 -0.112 0.368 -0.070 -0.114 -0.641 30710
0.00053 -0.00174 -0.00015 -0.313 0.008 -9.699 -0.02 -0.00 0.09 0.00 0.00000 0.14583 0.01798 -0.00119 0.98914 0.0028 -0.0359 -0.001 -0.121 0.354 -0.073 -0.115 -0.634 30810
-0.00082 -0.00168 -0.00120 -0.310 -0.013 -9.685 0.00 -0.01 0.05 0.00 0.00000 0.14587 0.01712 -0.00103 0.98915 0.0029 -0.0341 -0.001 -0.118 0.324 -0.068 -0.116 -0.632 30910
0.00102 -0.00044 -0.00019 -0.301 -0.029 -9.695 0.02 -0.01 0.05 0.00 0.00000 0.14456 0.01676 -0.00084 0.98935 0.0031 -0.0334 -0.002 -0.112 0.316 -0.061 -0.116 -0.633 31010
0.00419 -0.00048 -0.00061 -0.300 -0.001 -9.687 -0.00 -0.03 0.14 0.00 0.00000 0.14512 0.01755 -0.00040 0.98925 0.0043 -0.0348 -0.000 -0.093 0.393 -0.060 -0.113 -0.632 31110
0.00187 -0.00122 -0.00154 -0.328 0.003 -9.682 -0.02 -0.03 0.15 0.00 0.00000 0.14535 0.01788 -0.00023 0.98921 0.0047 -0.0354 -0.001 -0.081 0.399 -0.062 -0.112 -0.627 31210
0.00187 -0.00216 -0.00106 -0.309 0.016 -9.719 0.01 -0.00 0.04 0.00 0.00000 0.14590 0.01712 -0.00110 0.98914 0.0028 -0.0342 -0.002 -0.121 0.309 -0.061 -0.120 -0.619 31310
0.00177 -0.00116 -0.00156 -0.316 0.001 -9.711 0.03 0.00 0.03 0.00 0.00000 0.14722 0.01677 -0.00153 0.98895 0.0018 -0.0336 -0.002 -0.149 0.284 -0.057 -0.127 -0.616 31410
-0.00121 -0.00213 0.00006 -0.301 -0.011 -9.679 0.03 0.00 0.02 0.00 0.00000 0.14661 0.01673 -0.00145 0.98905 0.0020 -0.0335 -0.001 -0.150 0.282 -0.052 -0.129 -0.622 31510
-0.00082 -0.00115 -0.00072 -0.320 -0.013 -9.697 0.03 0.00 0.03 0.00 0.00000 0.14641 0.01674 -0.00135 0.98908 0.0022 -0.0335 -0.001 -0.146 0.291 -0.047 -0.129 -0.628 31610
0.00178 -0.00114 -0.00155 -0.311 -0.018 -9.691 0.03 -0.00 0.10 0.00 0.00000 0.14670 0.01677 -0.00117 0.98903 0.0026 -0.0335 -0.001 -0.139 0.352 -0.043 -0.129 -0.631 31710
0.00233 -0.00211 -0.00112 -0.304 -0.001 -9.668 0.03 -0.00 0.11 0.00 0.00000 0.14636 0.01681 -0.00106 0.98908 0.0028 -0.0335 -0.001 -0.137 0.371 -0.040 -0.130 -0.634 31810
0.00233 -0.00120 -0.00112 -0.317 -0.000 -9.688 -0.00 0.00 0.14 0.00 0.00000 0.14623 0.01794 -0.00113 0.98908 0.0030 -0.0358 -0.000 -0.134 0.391 -0.046 -0.129 -0.629 31910
0.00242 -0.00174 -0.00041 -0.306 0.001 -9.664 -0.04 0.01 0.15 0.00 0.00000 0.14698 0.01886 -0.00123 0.98895 0.0031 -0.0376 0.000 -0.132 0.395 -0.057 -0.125 -0.623 32010
0.00147 -0.00124 -0.00031 -0.312 0.003 -9.670 -0.05 -0.00 0.14 0.00 0.00000 0.14877 0.01885 -0.00093 0.98869 0.0037 -0.0375 0.000 -0.117 0.383 -0.066 -0.119 -0.617 32110
-0.00029 -0.00171 -0.00082 -0.319 0.001 -9.688 -0.04 -0.01 0.13 0.00 0.00000 0.14888 0.01856 -0.00056 0.98867 0.0044 -0.0368 -0.000 -0.100 0.374 -0.070 -0.114 -0.609 32210
-0.00061 -0.00219 0.00047 -0.314 -0.011 -9.675 -0.04 -0.02 0.11 0.00 0.00000 0.14755 0.01861 -0.00036 0.98887 0.0047 -0.0369 -0.000 -0.086 0.350 -0.074 -0.111 -0.606 32310
-0.00034 -0.00170 -0.00128 -0.309 0.011 -9.711 -0.05 -0.03 0.10 0.00 0.00000 0.14736 0.01871 -0.00024 0.98890 0.0050 -0.0370 -0.000 -0.081 0.332 -0.079 -0.108 -0.601 32410
0.00188 -0.00122 -0.00110 -0.312 -0.003 -9.682 -0.06 -0.02 0.09 0.00 0.00000 0.14860 0.01889 -0.00034 0.98871 0.0049 -0.0374 0.000 -0.080 0.330 -0.084 -0.107 -0.602 32510
0.00138 -0.00123 -0.00103 -0.301 -0.006 -9.687 -0.07 -0.01 0.10 0.00 0.00000 0.14827 0.01909 -0.00053 0.98876 0.0046 -0.0379 0.000 -0.084 0.338 -0.091 -0.106 -0.603 32610
0.00177 -0.00124 -0.00159 -0.310 -0.006 -9.687 -0.07 -0.00 0.09 0.00 0.00000 0.14911 0.01919 -0.00098 0.98863 0.0037 -0.0382 0.000 -0.102 0.329 -0.099 -0.107 -0.604 32710
0.00076 -0.00173 -0.00145 -0.295 0.021 -9.707 -0.07 0.02 0.06 0.00 0.00000 0.14867 0.01926 -0.00164 0.98869 0.0024 -0.0385 0.000 -0.136 0.300 -0.108 -0.110 -0.604 32810
-0.00046 -0.00165 -0.00127 -0.295 -0.001 -9.704 -0.03 0.02 0.05 0.00 0.00000 0.14739 0.01807 -0.00171 0.98891 0.0019 -0.0362 -0.001 -0.151 0.295 -0.107 -0.113 -0.606 32910
-0.00041 -0.00103 -0.00077 -0.320 -0.013 -9.680 0.05 0.00 0.06 0.00 0.00000 0.14648 0.01589 -0.00149 0.98908 0.0017 -0.0318 -0.003 -0.155 0.310 -0.089 -0.116 -0.612 33010
0.00178 -0.00100 -0.00106 -0.309 0.016 -9.719 0.07 -0.01 0.04 0.00 0.00000 0.14702 0.01552 -0.00108 0.98901 0.0024 -0.0310 -0.004 -0.146 0.297 -0.071 -0.119 -0.614 33110
0.00184 -0.00155 -0.00105 -0.320 0.006 -9.712 0.02 -0.04 0.07 0.00 0.00000 0.14612 0.01676 -0.00020 0.98912 0.0044 -0.0332 -0.002 -0.098 0.314 -0.061 -0.113 -0.615 33210
0.00234 -0.00158 -0.00114 -0.305 0.013 -9.687 -0.00 -0.05 0.07 0.00 0.00000 0.14796 0.01734 0.00014 0.98884 0.0054 -0.0342 -0.001 -0.073 0.321 -0.058 -0.111 -0.618 33310
0.00046 -0.00119 -0.00016 -0.315 0.013 -9.717 -0.06 -0.00 0.03 0.00 0.00000 0.14778 0.01900 -0.00077 0.98883 0.0040 -0.0378 0.000 -0.096 0.291 -0.070 -0.112 -0.619 33410
0.00034 -0.00221 -0.00089 -0.332 -0.008 -9.697 -0.09 0.01 0.03 0.00 0.00000 0.14820 0.01970 -0.00119 0.98875 0.0034 -0.0393 0.001 -0.107 0.290 -0.085 -0.110 -0.622 33510
0.00135 -0.00260 -0.00028 -0.298 -0.003 -9.715 -0.02 0.02 0.03 0.00 0.00000 0.14804 0.01811 -0.00179 0.98881 0.0018 -0.0363 -0.000 -0.146 0.295 -0.089 -0.116 -0.625 33610
0.00123 -0.00158 -0.00098 -0.310 -0.006 -9.716 0.00 0.03 0.04 0.00 0.00000 0.14630 0.01739 -0.00202 0.98908 0.0010 -0.0350 -0.001 -0.168 0.303 -0.087 -0.121 -0.628 33710
0.00087 -0.00211 -0.00020 -0.307 -0.011 -9.680 -0.03 0.02 0.10 0.00 0.00000 0.14700 0.01820 -0.00170 0.98896 0.0019 -0.0365 -0.000 -0.154 0.354 -0.089 -0.117 -0.631 33810
0.00078 -0.00042 -0.00091 -0.309 0.003 -9.694 -0.05 0.02 0.10 0.00 0.00000 0.14600 0.01860 -0.00150 0.98910 0.0024 -0.0372 -0.000 -0.144 0.364 -0.094 -0.114 -0.630 33910
0.00039 -0.00112 -0.00013 -0.311 0.003 -9.748 -0.03 0.01 0.06 0.00 0.00000 0.14662 0.01815 -0.00138 0.98902 0.0025 -0.0363 -0.001 -0.141 0.323 -0.095 -0.114 -0.622 34010
0.00175 -0.00158 -0.00105 -0.319 -0.018 -9.703 -0.02 0.01 0.05 0.00 0.00000 0.14693 0.01782 -0.00130 0.98898 0.0026 -0.0356 -0.001 -0.137 0.311 -0.093 -0.114 -0.621 34110
0.00137 -0.00037 -0.00025 -0.319 -0.016 -9.687 -0.03 0.00 0.14 0.00 0.00000 0.14618 0.01811 -0.00110 0.98909 0.0031 -0.0361 -0.000 -0.127 0.383 -0.094 -0.113 -0.620 34210
0.00122 -0.00209 -0.00147 -0.300 0.000 -9.640 -0.04 0.00 0.18 0.00 0.00000 0.14690 0.01833 -0.00095 0.98898 0.0034 -0.0365 -0.000 -0.120 0.420 -0.097 -0.111 -0.620 34310
0.00126 -0.00160 -0.00099 -0.307 -0.023 -9.677 -0.04 0.01 0.19 0.00 0.00000 0.14721 0.01828 -0.00129 0.98893 0.0028 -0.0365 -0.001 -0.132 0.424 -0.100 -0.113 -0.608 34410
0.00166 -0.00159 -0.00153 -0.307 -0.001 -9.672 -0.03 0.02 0.20 0.00 0.00000 0.14653 0.01816 -0.00160 0.98903 0.0021 -0.0364 -0.001 -0.152 0.420 -0.103 -0.116 -0.595 34510
0.00082 -0.00110 -0.00018 -0.320 0.001 -9.642 -0.03 0.04 0.23 0.00 0.00000 0.14627 0.01812 -0.00193 0.98907 0.0014 -0.0364 -0.000 -0.173 0.435 -0.106 -0.119 -0.583 34610
0.00168 -0.00110 -0.00101 -0.315 -0.003 -9.638 -0.03 0.05 0.25 0.00 0.00000 0.14489 0.01811 -0.00212 0.98927 0.0010 -0.0364 -0.000 -0.185 0.444 -0.109 -0.121 -0.571 34710
0.00175 -0.00157 -0.00103 -0.306 0.001 -9.667 -0.04 0.00 0.19 0.00 0.00000 0.14580 0.01814 -0.00098 0.98914 0.0033 -0.0361 -0.001 -0.140 0.387 -0.107 -0.114 -0.558 34810
0.00131 -0.00156 -0.00097 -0.321 0.011 -9.671 -0.05 -0.02 0.18 0.00 0.00000 0.14618 0.01815 -0.00018 0.98909 0.0049 -0.0359 -0.001 -0.098 0.368 -0.104 -0.108 -0.550 34910
0.00095 -0.00155 -0.00022 -0.311 -0.003 -9.673 -0.05 -0.05 0.19 0.00 0.00000 0.14815 0.01820 0.00044 0.98879 0.0062 -0.0358 -0.001 -0.059 0.372 -0.102 -0.103 -0.546 35010
0.00081 -0.00106 -0.00139 -0.329 -0.013 -9.641 -0.06 -0.07 0.20 0.00 0.00000 0.14597 0.01822 0.00080 0.98911 0.0069 -0.0358 -0.000 -0.033 0.378 -0.100 -0.100 -0.546 35110
0.00084 -0.00155 -0.00089 -0.311 -0.003 -9.662 -0.06 -0.05 0.22 0.00 0.00000 0.14499 0.01832 0.00024 0.98926 0.0057 -0.0362 -0.000 -0.052 0.389 -0.103 -0.103 -0.543 35210
0.00129 -0.00156 -0.00097 -0.292 -0.013 -9.646 -0.06 -0.03 0.23 0.00 0.00000 0.14629 0.01839 -0.00035 0.98907 0.0046 -0.0364 -0.000 -0.077 0.398 -0.107 -0.109 -0.541 35310
0.00221 -0.00108 -0.00156 -0.333 0.008 -9.661 -0.08 -0.04 0.25 0.00 0.00000 0.14476 0.01870 0.00002 0.98928 0.0054 -0.0370 -0.000 -0.067 0.414 -0.110 -0.107 -0.534 35410
0.00133 -0.00206 -0.00097 -0.316 -0.001 -9.652 -0.09 -0.06 0.28 0.00 0.00000 0.14628 0.01893 0.00039 0.98906 0.0063 -0.0373 -0.000 -0.043 0.427 -0.114 -0.103 -0.525 35510
0.00091 -0.00110 -0.00019 -0.309 0.000 -9.679 -0.10 -0.04 0.20 0.00 0.00000 0.14702 0.01909 -0.00015 0.98894 0.0053 -0.0378 -0.000 -0.059 0.355 -0.121 -0.104 -0.516 35610
0.00023 -0.00159 -0.00134 -0.308 -0.006 -9.642 -0.10 -0.01 0.14 0.00 0.00000 0.14727 0.01917 -0.00070 0.98890 0.0042 -0.0381 0.000 -0.082 0.304 -0.128 -0.107 -0.517 35710
0.00182 -0.00103 -0.00031 -0.320 -0.006 -9.670 -0.05 -0.02 0.15 0.00 0.00000 0.14683 0.01798 -0.00083 0.98899 0.0036 -0.0358 -0.000 -0.100 0.308 -0.126 -0.112 -0.521 35810
0.00116 -0.00145 -0.00146 -0.309 -0.000 -9.718 -0.01 -0.02 0.13 0.00 0.00000 0.14672 0.01695 -0.00085 0.98903 0.0032 -0.0337 -0.003 -0.111 0.295 -0.117 -0.118 -0.523 35910
0.00074 -0.00096 -0.00090 -0.318 -0.021 -9.702 -0.01 -0.02 0.10 0.00 0.00000 0.14628 0.01699 -0.00092 0.98909 0.0031 -0.0338 -0.002 -0.112 0.273 -0.109 -0.121 -0.527 36010
0.00073 -0.00194 -0.00090 -0.328 -0.006 -9.708 -0.01 -0.02 0.08 0.00 0.00000 0.14605 0.01710 -0.00098 0.98912 0.0030 -0.0341 -0.001 -0.116 0.258 -0.103 -0.124 -0.531 36110
0.00083 -0.00199 -0.00016 -0.332 -0.026 -9.668 -0.05 -0.01 0.16 0.00 0.00000 0.14539 0.01794 -0.00101 0.98921 0.0032 -0.0358 0.000 -0.109 0.322 -0.104 -0.123 -0.538 36210
0.00122 -0.00153 -0.00097 -0.309 0.001 -9.642 -0.07 -0.01 0.21 0.00 0.00000 0.14651 0.01853 -0.00104 0.98903 0.0033 -0.0369 0.000 -0.109 0.379 -0.109 -0.121 -0.546 36310
0.00134 -0.00151 -0.00023 -0.316 -0.011 -9.648 -0.07 -0.03 0.19 0.00 0.00000 0.14575 0.01832 -0.00052 0.98915 0.0042 -0.0364 -0.000 -0.086 0.375 -0.111 -0.117 -0.548 36410
0.00174 -0.00198 -0.00102 -0.306 0.013 -9.665 -0.06 -0.05 0.20 0.00 0.00000 0.14569 0.01817 -0.00024 0.98916 0.0048 -0.0360 -0.000 -0.073 0.377 -0.111 -0.115 -0.546 36510
0.00028 -0.00150 -0.00082 -0.310 -0.018 -9.647 -0.07 -0.04 0.25 0.00 0.00000 0.14551 0.01837 -0.00043 0.98918 0.0044 -0.0364 -0.000 -0.073 0.419 -0.114 -0.116 -0.543 36610
-0.00100 -0.00248 -0.00116 -0.295 -0.003 -9.647 -0.08 -0.03 0.26 0.00 0.00000 0.14612 0.01850 -0.00063 0.98909 0.0041 -0.0368 -0.000 -0.080 0.425 -0.118 -0.116 -0.536 36710
0.00069 -0.00151 -0.00089 -0.304 -0.013 -9.645 -0.07 -0.00 0.24 0.00 0.00000 0.14597 0.01850 -0.00149 0.98911 0.0024 -0.0370 -0.000 -0.118 0.402 -0.124 -0.122 -0.527 36810
0.00115 -0.00151 -0.00096 -0.295 -0.021 -9.666 -0.07 0.01 0.23 0.00 0.00000 0.14643 0.01846 -0.00192 0.98904 0.0016 -0.0371 -0.000 -0.142 0.378 -0.129 -0.126 -0.519 36910
0.00215 -0.00099 -0.00106 -0.310 -0.011 -9.595 -0.06 -0.01 0.26 0.00 0.00000 0.14487 0.01807 -0.00122 0.98928 0.0028 -0.0361 0.000 -0.122 0.410 -0.128 -0.123 -0.521 37010
0.00136 -0.00146 0.00027 -0.323 -0.006 -9.618 -0.05 -0.02 0.28 0.00 0.00000 0.14496 0.01786 -0.00087 0.98927 0.0034 -0.0356 -0.001 -0.105 0.427 -0.125 -0.120 -0.519 37110
0.00121 -0.00096 -0.00091 -0.308 0.013 -9.642 -0.06 -0.04 0.33 0.00 0.00000 0.14335 0.01786 -0.00055 0.98951 0.0040 -0.0355 -0.001 -0.091 0.454 -0.122 -0.118 -0.508 37210
0.00073 -0.00096 -0.00088 -0.320 -0.011 -9.623 -0.06 -0.04 0.34 0.00 0.00000 0.14524 0.01789 -0.00045 0.98923 0.0043 -0.0355 -0.001 -0.079 0.454 -0.120 -0.117 -0.494 37310
0.00131 -0.00025 -0.00019 -0.306 -0.013 -9.636 -0.08 -0.04 0.28 0.00 0.00000 0.14405 0.01838 -0.00056 0.98939 0.0041 -0.0365 -0.000 -0.079 0.394 -0.123 -0.118 -0.481 37410
-0.00048 -0.00198 -0.00072 -0.321 -0.013 -9.644 -0.09 -0.03 0.24 0.00 0.00000 0.14558 0.01863 -0.00067 0.98917 0.0040 -0.0370 0.000 -0.081 0.357 -0.127 -0.117 -0.476 37510
0.00113 -0.00106 -0.00144 -0.306 -0.016 -9.714 -0.14 -0.01 0.15 0.00 0.00000 0.14656 0.01968 -0.00096 0.98900 0.0038 -0.0392 0.000 -0.085 0.271 -0.138 -0.114 -0.473 37610
0.00128 -0.00157 -0.00021 -0.310 0.011 -9.667 -0.16 -0.00 0.13 0.00 0.00000 0.14541 0.02014 -0.00110 0.98916 0.0036 -0.0401 0.002 -0.094 0.252 -0.151 -0.111 -0.477 37710
0.00174 -0.00099 -0.00027 -0.310 0.006 -9.663 -0.10 -0.01 0.19 0.00 0.00000 0.14493 0.01859 -0.00115 0.98926 0.0031 -0.0371 0.000 -0.107 0.303 -0.153 -0.114 -0.485 37810
0.00076 -0.00143 -0.00015 -0.313 0.001 -9.630 -0.07 -0.01 0.19 0.00 0.00000 0.14533 0.01778 -0.00121 0.98922 0.0027 -0.0355 -0.000 -0.115 0.322 -0.149 -0.118 -0.497 37910
0.00015 -0.00139 -0.00083 -0.306 -0.006 -9.643 -0.04 -0.00 0.22 0.00 0.00000 0.14682 0.01720 -0.00169 0.98901 0.0016 -0.0345 -0.001 -0.142 0.359 -0.144 -0.127 -0.505 38010
0.00013 -0.00138 -0.00081 -0.312 0.008 -9.666 -0.03 0.00 0.24 0.00 0.00000 0.14565 0.01696 -0.00185 0.98918 0.0012 -0.0341 -0.002 -0.158 0.376 -0.137 -0.132 -0.507 38110
0.00157 -0.00088 -0.00152 -0.309 -0.013 -9.678 -0.03 -0.03 0.16 0.00 0.00000 0.14793 0.01697 -0.00103 0.98885 0.0029 -0.0338 -0.002 -0.125 0.316 -0.129 -0.131 -0.507 38210
0.00165 -0.00087 -0.00104 -0.303 0.003 -9.652 -0.04 -0.04 0.14 0.00 0.00000 0.14793 0.01698 -0.00063 0.98885 0.0037 -0.0337 -0.001 -0.104 0.298 -0.122 -0.131 -0.512 38310
0.00114 -0.00087 -0.00098 -0.328 0.003 -9.699 -0.02 -0.03 0.14 0.00 0.00000 0.14814 0.01680 -0.00105 0.98882 0.0028 -0.0335 -0.002 -0.121 0.297 -0.117 -0.138 -0.516 38410
0.00064 -0.00135 -0.00091 -0.306 -0.001 -9.666 -0.02 -0.02 0.15 0.00 0.00000 0.14781 0.01674 -0.00123 0.98887 0.0025 -0.0334 -0.001 -0.132 0.308 -0.112 -0.143 -0.523 38510
0.00022 -0.00139 -0.00083 -0.329 0.006 -9.659 -0.06 -0.06 0.11 0.00 0.00000 0.14687 0.01767 -0.00018 0.98899 0.0048 -0.0350 -0.000 -0.083 0.283 -0.110 -0.133 -0.532 38610
-0.00047 -0.00141 -0.00074 -0.331 -0.021 -9.675 -0.08 -0.08 0.10 0.00 0.00000 0.14708 0.01809 0.00024 0.98895 0.0058 -0.0357 0.000 -0.048 0.277 -0.111 -0.126 -0.540 38710
-0.00042 -0.00136 -0.00001 -0.341 -0.013 -9.664 -0.04 -0.06 0.17 0.00 0.00000 0.14668 0.01720 -0.00043 0.98903 0.0041 -0.0341 -0.000 -0.076 0.345 -0.110 -0.133 -0.547 38810
0.00227 -0.00084 0.00013 -0.307 0.021 -9.669 -0.02 -0.05 0.17 0.00 0.00000 0.14623 0.01674 -0.00080 0.98910 0.0032 -0.0333 -0.001 -0.104 0.358 -0.107 -0.140 -0.552 38910
0.00009 -0.00012 -0.00131 -0.331 0.003 -9.693 -0.03 -0.04 0.12 0.00 0.00000 0.14664 0.01683 -0.00107 0.98904 0.0028 -0.0336 -0.002 -0.117 0.313 -0.104 -0.144 -0.552 39010
-0.00057 -0.00134 -0.00071 -0.317 -0.011 -9.719 -0.03 -0.03 0.10 0.00 0.00000 0.14554 0.01692 -0.00117 0.98920 0.0025 -0.0338 -0.001 -0.122 0.294 -0.101 -0.146 -0.551 39110
0.00106 -0.00174 -0.00139 -0.303 -0.018 -9.660 0.02 -0.06 0.13 0.00 0.00000 0.14420 0.01562 -0.00074 0.98942 0.0030 -0.0311 -0.002 -0.108 0.323 -0.088 -0.145 -0.557 39210
0.00282 0.00000 -0.00111 -0.309 0.016 -9.684 0.05 -0.07 0.13 0.00 0.00000 0.14335 0.01499 -0.00053 0.98955 0.0032 -0.0298 -0.003 -0.103 0.332 -0.071 -0.144 -0.561 39310
0.00105 -0.00074 -0.00142 -0.333 -0.006 -9.708 0.04 -0.06 0.12 0.00 0.00000 0.14599 0.01521 -0.00084 0.98916 0.0027 -0.0303 -0.003 -0.111 0.319 -0.060 -0.151 -0.561 39410
0.00201 0.00046 -0.00153 -0.337 0.008 -9.720 0.04 -0.05 0.12 0.00 0.00000 0.14509 0.01538 -0.00101 0.98929 0.0024 -0.0307 -0.003 -0.121 0.319 -0.051 -0.156 -0.560 39510
0.00011 -0.00080 -0.00081 -0.311 0.008 -9.721 0.01 -0.03 0.09 0.00 0.00000 0.14625 0.01625 -0.00154 0.98911 0.0017 -0.0326 -0.001 -0.140 0.291 -0.052 -0.161 -0.559 39610
-0.00062 -0.00180 -0.00070 -0.313 -0.008 -9.704 -0.00 -0.01 0.07 0.00 0.00000 0.14557 0.01667 -0.00171 0.98920 0.0014 -0.0334 -0.000 -0.148 0.270 -0.054 -0.162 -0.563 39710
-0.00103 -0.00081 0.00009 -0.301 -0.003 -9.716 0.01 -0.00 0.07 0.00 0.00000 0.14463 0.01633 -0.00201 0.98934 0.0007 -0.0329 -0.000 -0.165 0.272 -0.054 -0.164 -0.567 39810
0.00103 -0.00007 -0.00089 -0.307 -0.006 -9.717 0.02 -0.00 0.06 0.00 0.00000 0.14385 0.01621 -0.00210 0.98946 0.0005 -0.0326 -0.001 -0.175 0.272 -0.053 -0.166 -0.572 39910
0.00198 -0.00011 -0.00151 -0.327 0.003 -9.704 -0.01 -0.02 0.06 0.00 0.00000 0.14419 0.01713 -0.00148 0.98940 0.0020 -0.0343 0.000 -0.146 0.276 -0.056 -0.160 -0.577 40010
0.00385 -0.00013 -0.00054 -0.308 0.006 -9.674 -0.03 -0.03 0.06 0.00 0.00000 0.14517 0.01760 -0.00118 0.98924 0.0027 -0.0351 0.001 -0.127 0.280 -0.062 -0.155 -0.586 40110
-0.00112 -0.00183 -0.00063 -0.315 0.003 -9.717 -0.01 -0.01 0.04 0.00 0.00000 0.14533 0.01727 -0.00182 0.98922 0.0014 -0.0347 -0.000 -0.151 0.270 -0.067 -0.159 -0.592 40210
-0.00153 -0.00133 0.00014 -0.325 -0.016 -9.733 -0.00 0.00 0.03 0.00 0.00000 0.14554 0.01706 -0.00208 0.98920 0.0008 -0.0343 -0.000 -0.167 0.266 -0.070 -0.161 -0.595 40310
0.00056 -0.00085 -0.00087 -0.323 -0.018 -9.710 -0.02 -0.00 0.06 0.00 0.00000 0.14609 0.01742 -0.00187 0.98911 0.0013 -0.0350 -0.000 -0.158 0.290 -0.074 -0.157 -0.600 40410
0.00332 -0.00013 -0.00050 -0.316 -0.023 -9.713 -0.03 -0.00 0.07 0.00 0.00000 0.14710 0.01764 -0.00174 0.98896 0.0017 -0.0354 -0.000 -0.150 0.304 -0.079 -0.155 -0.604 40510
0.00210 -0.00083 -0.00034 -0.307 -0.001 -9.697 -0.01 -0.00 0.06 0.00 0.00000 0.14693 0.01712 -0.00177 0.98899 0.0015 -0.0344 -0.000 -0.157 0.306 -0.080 -0.156 -0.608 40610
-0.00055 -0.00081 0.00001 -0.329 -0.003 -9.703 -0.00 -0.00 0.06 0.00 0.00000 0.14584 0.01682 -0.00182 0.98916 0.0013 -0.0338 -0.001 -0.161 0.310 -0.079 -0.157 -0.611 40710
-0.00107 -0.00133 0.00008 -0.313 -0.011 -9.725 -0.01 0.01 0.10 0.00 0.00000 0.14550 0.01734 -0.00241 0.98920 0.0002 -0.0350 -0.000 -0.185 0.337 -0.083 -0.161 -0.610 40810
-0.00108 -0.00232 0.00007 -0.318 -0.016 -9.697 -0.02 0.03 0.10 0.00 0.00000 0.14658 0.01758 -0.00263 0.98903 -0.0000 -0.0355 -0.000 -0.197 0.341 -0.088 -0.161 -0.609 40910
0.00065 -0.00018 -0.00015 -0.304 0.003 -9.668 -0.07 0.01 0.20 0.00 0.00000 0.14672 0.01865 -0.00199 0.98899 0.0015 -0.0374 0.001 -0.166 0.420 -0.097 -0.149 -0.607 41010
0.00212 -0.00093 -0.00032 -0.297 -0.001 -9.683 -0.09 0.00 0.21 0.00 0.00000 0.14553 0.01911 -0.00168 0.98916 0.0022 -0.0383 0.000 -0.146 0.425 -0.109 -0.142 -0.595 41110
0.00207 -0.00088 -0.00103 -0.311 0.003 -9.667 -0.08 -0.03 0.14 0.00 0.00000 0.14477 0.01842 -0.00072 0.98929 0.0039 -0.0366 -0.000 -0.106 0.361 -0.112 -0.134 -0.585 41210
0.00161 -0.00086 -0.00098 -0.305 0.011 -9.679 -0.07 -0.05 0.13 0.00 0.00000 0.14566 0.01809 -0.00032 0.98916 0.0046 -0.0358 -0.000 -0.083 0.344 -0.112 -0.130 -0.581 41310
-0.00042 -0.00093 0.00006 -0.312 -0.000 -9.668 -0.13 -0.07 0.25 0.00 0.00000 0.14310 0.01951 0.00035 0.98951 0.0062 -0.0385 0.001 -0.039 0.439 -0.122 -0.120 -0.576 41410
-0.00049 -0.00145 -0.00067 -0.310 -0.008 -9.645 -0.16 -0.08 0.27 0.00 0.00000 0.14396 0.02007 0.00060 0.98937 0.0069 -0.0395 0.001 -0.013 0.448 -0.135 -0.113 -0.564 41510
0.00077 -0.00092 -0.00011 -0.298 -0.023 -9.634 -0.14 -0.08 0.34 0.00 0.00000 0.14420 0.01934 0.00027 0.98935 0.0061 -0.0382 0.000 -0.024 0.495 -0.144 -0.116 -0.546 41610
0.00221 0.00032 -0.00033 -0.322 -0.006 -9.649 -0.12 -0.07 0.34 0.00 0.00000 0.14605 0.01895 0.00006 0.98909 0.0056 -0.0374 -0.001 -0.038 0.475 -0.149 -0.118 -0.520 41710
0.00218 -0.00087 -0.00030 -0.326 -0.008 -9.663 -0.10 -0.06 0.24 0.00 0.00000 0.14447 0.01850 -0.00020 0.98933 0.0049 -0.0366 -0.001 -0.056 0.378 -0.151 -0.123 -0.500 41810
0.00153 -0.00085 -0.00144 -0.330 0.001 -9.692 -0.10 -0.06 0.21 0.00 0.00000 0.14410 0.01828 -0.00033 0.98939 0.0046 -0.0362 -0.001 -0.067 0.338 -0.150 -0.126 -0.490 41910
0.00006 -0.00081 -0.00076 -0.327 -0.003 -9.653 -0.06 -0.02 0.21 0.00 0.00000 0.14411 0.01741 -0.00143 0.98940 0.0021 -0.0348 -0.001 -0.122 0.337 -0.148 -0.140 -0.492 42010
0.00045 -0.00127 -0.00131 -0.323 -0.006 -9.695 -0.03 -0.00 0.20 0.00 0.00000 0.14393 0.01697 -0.00198 0.98943 0.0009 -0.0341 -0.002 -0.159 0.328 -0.143 -0.149 -0.492 42110
0.00013 -0.00079 -0.00006 -0.310 -0.006 -9.679 -0.04 -0.01 0.17 0.00 0.00000 0.14557 0.01710 -0.00179 0.98919 0.0014 -0.0343 -0.001 -0.157 0.305 -0.138 -0.151 -0.495 42210
0.00110 -0.00079 -0.00020 -0.330 -0.018 -9.679 -0.04 -0.01 0.16 0.00 0.00000 0.14625 0.01717 -0.00166 0.98909 0.0017 -0.0344 -0.001 -0.151 0.303 -0.133 -0.152 -0.499 42310
0.00051 -0.00008 -0.00086 -0.314 0.003 -9.656 -0.06 -0.00 0.24 0.00 0.00000 0.14655 0.01751 -0.00196 0.98904 0.0012 -0.0352 -0.000 -0.163 0.371 -0.134 -0.155 -0.504 42410
0.00098 0.00039 -0.00092 -0.316 -0.018 -9.650 -0.06 0.00 0.24 0.00 0.00000 0.14635 0.01766 -0.00210 0.98907 0.0010 -0.0355 -0.000 -0.169 0.380 -0.136 -0.156 -0.507 42510
-0.00076 -0.00079 -0.00119 -0.312 -0.008 -9.697 -0.05 -0.00 0.17 0.00 0.00000 0.14680 0.01719 -0.00200 0.98901 0.0010 -0.0346 -0.001 -0.170 0.316 -0.134 -0.156 -0.504 42610
0.00050 -0.00077 -0.00086 -0.323 -0.001 -9.687 -0.03 -0.00 0.13 0.00 0.00000 0.14623 0.01691 -0.00190 0.98910 0.0011 -0.0340 -0.001 -0.169 0.279 -0.130 -0.157 -0.506 42710
0.00089 -0.00126 -0.00139 -0.332 0.000 -9.638 -0.03 0.01 0.18 0.00 0.00000 0.14566 0.01689 -0.00237 0.98918 0.0002 -0.0341 -0.000 -0.193 0.321 -0.128 -0.163 -0.514 42810
0.00104 -0.00126 -0.00020 -0.315 0.000 -9.664 -0.03 0.02 0.19 0.00 0.00000 0.14703 0.01691 -0.00259 0.98898 -0.0001 -0.0342 -0.000 -0.208 0.347 -0.127 -0.167 -0.520 42910
0.00095 -0.00122 -0.00094 -0.318 -0.000 -9.654 -0.01 0.01 0.08 0.00 0.00000 0.14741 0.01636 -0.00236 0.98893 0.0001 -0.0330 -0.001 -0.207 0.264 -0.121 -0.170 -0.530 43010
0.00056 0.00001 -0.00014 -0.301 -0.003 -9.670 0.00 0.00 0.04 0.00 0.00000 0.14711 0.01610 -0.00222 0.98898 0.0003 -0.0325 -0.001 -0.203 0.227 -0.113 -0.172 -0.538 43110
0.00012 -0.00076 -0.00005 -0.341 0.003 -9.692 -0.03 -0.00 0.09 0.00 0.00000 0.14518 0.01702 -0.00172 0.98925 0.0015 -0.0341 -0.000 -0.176 0.268 -0.110 -0.166 -0.545 43210
0.00101 -0.00006 -0.00090 -0.310 -0.011 -9.646 -0.06 -0.01 0.11 0.00 0.00000 0.14525 0.01760 -0.00143 0.98923 0.0022 -0.0352 0.001 -0.153 0.299 -0.113 -0.160 -0.558 43310
0.00093 0.00047 -0.00138 -0.310 -0.023 -9.722 -0.02 -0.01 -0.07 0.00 0.00000 0.14488 0.01677 -0.00159 0.98930 0.0017 -0.0336 -0.001 -0.161 0.160 -0.110 -0.163 -0.568 43410
0.00156 -0.00072 -0.00021 -0.303 0.000 -9.721 -0.01 -0.01 -0.11 0.00 0.00000 0.14368 0.01644 -0.00166 0.98948 0.0014 -0.0330 -0.001 -0.171 0.107 -0.104 -0.165 -0.576 43510
-0.00002 -0.00079 -0.00076 -0.324 -0.008 -9.687 -0.05 0.02 -0.03 0.00 0.00000 0.14454 0.01752 -0.00248 0.98933 0.0001 -0.0353 0.001 -0.202 0.166 -0.110 -0.171 -0.585 43610
0.00086 -0.00082 -0.00137 -0.330 -0.006 -9.691 -0.06 0.04 -0.01 0.00 0.00000 0.14488 0.01800 -0.00282 0.98928 -0.0003 -0.0364 0.001 -0.221 0.208 -0.119 -0.173 -0.598 43710
-0.00003 -0.00127 -0.00075 -0.305 -0.011 -9.669 -0.05 0.03 0.04 0.00 0.00000 0.14432 0.01750 -0.00250 0.98937 0.0000 -0.0353 0.000 -0.215 0.280 -0.121 -0.170 -0.612 43810
0.00094 -0.00125 -0.00089 -0.318 -0.000 -9.681 -0.04 0.02 0.06 0.00 0.00000 0.14472 0.01722 -0.00233 0.98931 0.0003 -0.0347 -0.000 -0.211 0.315 -0.121 -0.169 -0.624 43910
0.00155 -0.00124 -0.00022 -0.316 -0.001 -9.699 -0.04 0.00 0.06 0.00 0.00000 0.14450 0.01715 -0.00174 0.98935 0.0014 -0.0344 -0.001 -0.185 0.325 -0.119 -0.164 -0.628 44010
0.00060 -0.00001 -0.00012 -0.310 0.008 -9.673 -0.04 -0.01 0.07 0.00 0.00000 0.14575 0.01712 -0.00142 0.98917 0.0021 -0.0343 -0.000 -0.168 0.340 -0.117 -0.161 -0.632 44110
-0.00074 -0.00073 -0.00065 -0.322 -0.011 -9.654 -0.02 0.01 0.07 0.00 0.00000 0.14396 0.01692 -0.00217 0.98943 0.0005 -0.0341 -0.000 -0.197 0.343 -0.117 -0.167 -0.637 44210
0.00042 -0.00073 -0.00081 -0.320 -0.027 -9.657 -0.01 0.04 0.07 0.00 0.00000 0.14399 0.01679 -0.00273 0.98943 -0.0005 -0.0340 -0.001 -0.228 0.343 -0.117 -0.174 -0.642 44310
0.00042 -0.00069 -0.00081 -0.320 0.006 -9.686 0.00 0.03 0.00 0.00 0.00000 0.14437 0.01620 -0.00265 0.98938 -0.0005 -0.0328 -0.002 -0.239 0.295 -0.112 -0.177 -0.645 44410
0.00149 0.00006 -0.00021 -0.307 -0.003 -9.687 0.02 0.02 -0.02 0.00 0.00000 0.14406 0.01574 -0.00246 0.98943 -0.0003 -0.0318 -0.002 -0.235 0.267 -0.102 -0.179 -0.650 44510
0.00054 -0.00116 -0.00008 -0.332 -0.006 -9.694 0.01 0.01 -0.03 0.00 0.00000 0.14365 0.01607 -0.00213 0.98949 0.0003 -0.0324 -0.001 -0.217 0.256 -0.095 -0.176 -0.658 44610
0.00105 -0.00070 -0.00015 -0.324 -0.029 -9.689 -0.00 0.00 -0.03 0.00 0.00000 0.14417 0.01655 -0.00181 0.98941 0.0011 -0.0332 -0.000 -0.195 0.261 -0.091 -0.172 -0.667 44710
0.00139 -0.00071 -0.00145 -0.326 0.001 -9.674 -0.01 -0.00 0.00 0.00 0.00000 0.14590 0.01691 -0.00150 0.98915 0.0019 -0.0339 -0.000 -0.180 0.304 -0.090 -0.169 -0.676 44810
0.00060 0.00049 -0.00013 -0.311 0.001 -9.643 -0.03 -0.01 0.03 0.00 0.00000 0.14675 0.01716 -0.00122 0.98902 0.0026 -0.0343 0.000 -0.163 0.351 -0.092 -0.164 -0.687 44910
0.00012 -0.00001 -0.00006 -0.327 -0.018 -9.668 -0.04 -0.01 0.04 0.00 0.00000 0.14635 0.01753 -0.00122 0.98907 0.0027 -0.0350 -0.000 -0.154 0.360 -0.096 -0.161 -0.691 45010
0.00011 -0.00126 -0.00006 -0.317 -0.006 -9.654 -0.06 0.00 0.02 0.00 0.00000 0.14660 0.01805 -0.00139 0.98902 0.0025 -0.0361 0.000 -0.158 0.346 -0.103 -0.158 -0.693 45110
0.00009 -0.00123 -0.00005 -0.324 0.000 -9.675 -0.04 0.00 0.00 0.00 0.00000 0.14578 0.01750 -0.00158 0.98916 0.0019 -0.0350 -0.000 -0.172 0.332 -0.107 -0.160 -0.694 45210
0.00046 0.00004 -0.00083 -0.312 -0.008 -9.690 -0.00 0.00 0.01 0.00 0.00000 0.14551 0.01650 -0.00179 0.98921 0.0012 -0.0331 -0.001 -0.189 0.335 -0.103 -0.165 -0.695 45310
0.00046 -0.00065 -0.00082 -0.319 0.008 -9.644 0.01 -0.00 0.01 0.00 0.00000 0.14478 0.01607 -0.00163 0.98933 0.0014 -0.0322 -0.001 -0.191 0.343 -0.096 -0.167 -0.701 45410
0.00048 -0.00112 -0.00082 -0.331 -0.011 -9.691 0.02 -0.01 0.00 0.00 0.00000 0.14515 0.01586 -0.00126 0.98928 0.0021 -0.0317 -0.002 -0.172 0.334 -0.086 -0.166 -0.702 45510
-0.00005 -0.00066 -0.00124 -0.338 0.000 -9.704 0.00 -0.02 0.00 0.00 0.00000 0.14512 0.01630 -0.00109 0.98927 0.0025 -0.0325 -0.002 -0.160 0.334 -0.080 -0.164 -0.700 45610
0.00098 -0.00070 -0.00090 -0.310 0.008 -9.665 -0.02 -0.02 0.02 0.00 0.00000 0.14573 0.01700 -0.00103 0.98917 0.0029 -0.0339 -0.000 -0.152 0.352 -0.081 -0.162 -0.702 45710
0.00146 -0.00071 -0.00093 -0.314 0.003 -9.669 -0.03 -0.02 -0.00 0.00 0.00000 0.14401 0.01725 -0.00103 0.98942 0.0029 -0.0344 -0.000 -0.150 0.336 -0.084 -0.162 -0.704 45810
0.00000 -0.00169 -0.00077 -0.314 -0.013 -9.688 -0.03 -0.01 -0.02 0.00 0.00000 0.14550 0.01730 -0.00119 0.98920 0.0026 -0.0345 -0.000 -0.153 0.313 -0.087 -0.163 -0.706 45910
0.00106 -0.00119 -0.00016 -0.316 -0.016 -9.684 -0.02 -0.01 0.03 0.00 0.00000 0.14552 0.01725 -0.00120 0.98920 0.0026 -0.0344 -0.000 -0.154 0.358 -0.089 -0.163 -0.707 46010
0.00048 -0.00118 -0.00082 -0.309 -0.013 -9.669 -0.02 -0.01 0.11 0.00 0.00000 0.14510 0.01713 -0.00113 0.98926 0.0027 -0.0342 -0.000 -0.152 0.431 -0.091 -0.163 -0.705 46110
0.00105 -0.00069 -0.00017 -0.310 0.000 -9.626 -0.02 -0.01 0.12 0.00 0.00000 0.14585 0.01705 -0.00134 0.98915 0.0023 -0.0341 -0.001 -0.165 0.437 -0.092 -0.166 -0.697 46210
-0.00076 0.00052 -0.00065 -0.305 -0.006 -9.636 -0.01 0.00 0.10 0.00 0.00000 0.14469 0.01699 -0.00175 0.98932 0.0014 -0.0341 -0.001 -0.186 0.415 -0.094 -0.170 -0.685 46310
0.00045 -0.00069 -0.00080 -0.312 0.001 -9.638 -0.02 0.00 0.13 0.00 0.00000 0.14403 0.01709 -0.00161 0.98942 0.0017 -0.0343 -0.000 -0.184 0.432 -0.094 -0.169 -0.674 46410
0.00112 0.00002 0.00034 -0.336 -0.016 -9.634 -0.03 -0.01 0.18 0.00 0.00000 0.14371 0.01734 -0.00112 0.98946 0.0027 -0.0346 -0.000 -0.158 0.457 -0.095 -0.164 -0.661 46510
0.00195 0.00001 -0.00100 -0.319 0.003 -9.604 -0.04 -0.02 0.16 0.00 0.00000 0.14465 0.01763 -0.00084 0.98932 0.0034 -0.0351 -0.000 -0.141 0.437 -0.097 -0.159 -0.648 46610
0.00109 0.00096 -0.00014 -0.326 -0.006 -9.600 -0.06 -0.03 0.14 0.00 0.00000 0.14437 0.01807 -0.00057 0.98935 0.0040 -0.0359 0.000 -0.122 0.415 -0.102 -0.155 -0.639 46710
-0.00003 -0.00169 -0.00125 -0.324 -0.016 -9.621 -0.05 -0.04 0.10 0.00 0.00000 0.14594 0.01761 -0.00060 0.98913 0.0039 -0.0350 -0.000 -0.119 0.378 -0.103 -0.154 -0.634 46810
-0.00072 -0.00113 -0.00067 -0.334 -0.008 -9.677 -0.00 -0.04 0.05 0.00 0.00000 0.14560 0.01654 -0.00077 0.98920 0.0032 -0.0329 -0.002 -0.134 0.325 -0.098 -0.160 -0.631 46910
0.00047 -0.00065 -0.00085 -0.331 -0.013 -9.641 -0.00 -0.03 0.11 0.00 0.00000 0.14701 0.01655 -0.00099 0.98899 0.0029 -0.0330 -0.001 -0.146 0.370 -0.094 -0.167 -0.633 47010
0.00152 0.00101 -0.00023 -0.328 -0.001 -9.618 -0.03 -0.02 0.20 0.00 0.00000 0.14572 0.01727 -0.00119 0.98917 0.0026 -0.0345 -0.000 -0.155 0.453 -0.096 -0.169 -0.635 47110
0.00013 -0.00071 0.00044 -0.319 0.008 -9.602 -0.04 -0.01 0.19 0.00 0.00000 0.14588 0.01759 -0.00126 0.98914 0.0026 -0.0351 -0.000 -0.159 0.444 -0.100 -0.168 -0.627 47210
0.00095 0.00000 -0.00091 -0.316 0.000 -9.605 -0.05 -0.02 0.17 0.00 0.00000 0.14692 0.01782 -0.00121 0.98898 0.0028 -0.0356 0.000 -0.153 0.416 -0.104 -0.166 -0.617 47310
-0.00001 -0.00121 -0.00076 -0.315 -0.011 -9.607 -0.05 -0.02 0.18 0.00 0.00000 0.14570 0.01786 -0.00107 0.98916 0.0030 -0.0356 0.000 -0.144 0.423 -0.108 -0.163 -0.611 47410
0.00048 -0.00119 -0.00083 -0.299 -0.001 -9.628 -0.05 -0.03 0.20 0.00 0.00000 0.14583 0.01774 -0.00088 0.98914 0.0034 -0.0353 -0.000 -0.135 0.429 -0.110 -0.160 -0.604 47510
0.00153 0.00002 -0.00023 -0.340 -0.008 -9.595 -0.05 -0.03 0.20 0.00 0.00000 0.14606 0.01766 -0.00093 0.98911 0.0033 -0.0352 -0.000 -0.134 0.427 -0.112 -0.161 -0.598 47610
0.00094 0.00002 -0.00087 -0.326 -0.001 -9.615 -0.05 -0.02 0.21 0.00 0.00000 0.14501 0.01766 -0.00122 0.98927 0.0026 -0.0353 -0.000 -0.150 0.430 -0.115 -0.165 -0.591 47710
-0.00077 -0.00169 -0.00068 -0.332 -0.001 -9.624 -0.06 -0.01 0.23 0.00 0.00000 0.14687 0.01782 -0.00151 0.98899 0.0022 -0.0357 -0.000 -0.162 0.437 -0.119 -0.166 -0.582 47810
-0.00006 -0.00001 -0.00075 -0.327 -0.008 -9.612 -0.07 0.00 0.23 0.00 0.00000 0.14500 0.01829 -0.00182 0.98925 0.0016 -0.0367 0.000 -0.176 0.433 -0.127 -0.168 -0.573 47910
0.00100 -0.00074 -0.00017 -0.314 -0.011 -9.627 -0.08 0.00 0.22 0.00 0.00000 0.14628 0.01832 -0.00168 0.98907 0.0020 -0.0367 0.000 -0.171 0.414 -0.132 -0.166 -0.564 48010
0.00094 -0.00072 -0.00085 -0.335 -0.013 -9.596 -0.07 -0.02 0.18 0.00 0.00000 0.14392 0.01808 -0.00111 0.98942 0.0030 -0.0361 0.000 -0.146 0.383 -0.133 -0.160 -0.563 48110
-0.00065 -0.00070 0.00007 -0.307 -0.011 -9.606 -0.06 -0.02 0.18 0.00 0.00000 0.14494 0.01781 -0.00105 0.98927 0.0030 -0.0355 0.000 -0.140 0.380 -0.133 -0.158 -0.565 48210
0.00059 -0.00067 0.00041 -0.307 0.008 -9.631 -0.04 -0.01 0.18 0.00 0.00000 0.14371 0.01732 -0.00136 0.98946 0.0022 -0.0346 -0.000 -0.158 0.379 -0.132 -0.163 -0.566 48310
0.00004 -0.00065 -0.00001 -0.334 -0.008 -9.658 -0.03 -0.02 0.15 0.00 0.00000 0.14479 0.01702 -0.00135 0.98931 0.0022 -0.0340 -0.001 -0.160 0.357 -0.128 -0.165 -0.566 48410
0.00060 -0.00112 0.00041 -0.319 -0.011 -9.635 -0.02 -0.03 0.10 0.00 0.00000 0.14428 0.01679 -0.00108 0.98939 0.0027 -0.0335 -0.001 -0.150 0.316 -0.121 -0.164 -0.570 48510
0.00135 -0.00064 -0.00141 -0.317 -0.003 -9.658 -0.03 -0.03 0.11 0.00 0.00000 0.14454 0.01689 -0.00101 0.98935 0.0028 -0.0337 -0.001 -0.145 0.324 -0.116 -0.165 -0.574 48610
0.00044 -0.00067 -0.00084 -0.317 -0.006 -9.616 -0.05 -0.03 0.13 0.00 0.00000 0.14668 0.01743 -0.00106 0.98902 0.0030 -0.0348 0.000 -0.141 0.351 -0.117 -0.165 -0.583 48710
0.00053 -0.00116 -0.00011 -0.326 -0.006 -9.631 -0.05 -0.03 0.13 0.00 0.00000 0.14694 0.01744 -0.00119 0.98899 0.0027 -0.0348 -0.000 -0.144 0.355 -0.118 -0.166 -0.590 48810
-0.00078 -0.00065 -0.00068 -0.321 0.003 -9.619 -0.04 -0.02 0.10 0.00 0.00000 0.14696 0.01715 -0.00138 0.98899 0.0022 -0.0343 -0.000 -0.157 0.344 -0.118 -0.170 -0.598 48910
0.00040 -0.00111 -0.00084 -0.316 -0.003 -9.629 -0.01 -0.01 0.00 0.00 0.00000 0.14724 0.01667 -0.00163 0.98895 0.0016 -0.0334 -0.000 -0.174 0.264 -0.115 -0.176 -0.608 49010
-0.00267 -0.00058 0.00031 -0.321 -0.013 -9.700 0.01 -0.00 -0.10 0.00 0.00000 0.14578 0.01593 -0.00196 0.98918 0.0007 -0.0321 -0.002 -0.195 0.172 -0.106 -0.182 -0.616 49110
0.00083 -0.00057 -0.00088 -0.326 -0.016 -9.653 0.02 0.00 -0.04 0.00 0.00000 0.14586 0.01571 -0.00231 0.98917 0.0000 -0.0317 -0.000 -0.217 0.205 -0.097 -0.190 -0.624 49210
0.00298 0.00064 -0.00113 -0.323 -0.013 -9.645 0.03 0.02 0.01 0.00 0.00000 0.14414 0.01579 -0.00275 0.98942 -0.0008 -0.0320 -0.000 -0.243 0.277 -0.092 -0.197 -0.637 49310
0.00196 0.00059 0.00023 -0.329 -0.001 -9.645 -0.00 0.01 0.05 0.00 0.00000 0.14359 0.01668 -0.00238 0.98949 0.0000 -0.0337 0.000 -0.229 0.332 -0.091 -0.193 -0.650 49410
-0.00078 0.00001 -0.00060 -0.332 -0.013 -9.674 -0.07 -0.00 0.09 0.00 0.00000 0.14251 0.01826 -0.00146 0.98962 0.0023 -0.0365 0.001 -0.174 0.370 -0.099 -0.180 -0.655 49510
0.00150 -0.00122 -0.00018 -0.314 -0.032 -9.643 -0.10 -0.01 0.09 0.00 0.00000 0.14388 0.01878 -0.00119 0.98941 0.0030 -0.0375 0.001 -0.147 0.377 -0.112 -0.172 -0.657 49610
-0.00079 -0.00073 -0.00064 -0.313 -0.008 -9.627 -0.09 -0.00 0.08 0.00 0.00000 0.14445 0.01862 -0.00146 0.98933 0.0024 -0.0372 0.001 -0.158 0.376 -0.123 -0.171 -0.659 49710
0.00001 -0.00065 -0.00000 -0.305 -0.013 -9.635 -0.05 -0.01 0.04 0.00 0.00000 0.14453 0.01736 -0.00155 0.98934 0.0019 -0.0348 -0.000 -0.171 0.344 -0.124 -0.174 -0.662 49810
0.00038 -0.00055 -0.00080 -0.316 -0.011 -9.633 0.01 -0.02 0.03 0.00 0.00000 0.14494 0.01573 -0.00153 0.98931 0.0015 -0.0315 -0.002 -0.185 0.338 -0.113 -0.182 -0.668 49910
0.00104 0.00017 0.00038 -0.318 -0.018 -9.597 0.01 -0.03 0.01 0.00 0.00000 0.14244 0.01581 -0.00118 0.98967 0.0021 -0.0316 -0.001 -0.168 0.332 -0.101 -0.178 -0.679 50010
0.00092 0.00011 -0.00082 -0.332 -0.006 -9.616 -0.03 -0.05 0.01 0.00 0.00000 0.14225 0.01697 -0.00066 0.98968 0.0035 -0.0338 -0.000 -0.134 0.341 -0.097 -0.170 -0.689 50110
0.00197 0.00058 -0.00023 -0.303 -0.001 -9.646 -0.04 -0.03 -0.01 0.00 0.00000 0.14275 0.01726 -0.00102 0.98960 0.0028 -0.0344 -0.000 -0.143 0.322 -0.100 -0.173 -0.697 50210
0.00046 0.00009 -0.00006 -0.341 0.013 -9.633 -0.03 0.00 -0.02 0.00 0.00000 0.14399 0.01707 -0.00201 0.98942 0.0009 -0.0343 0.000 -0.194 0.319 -0.105 -0.186 -0.706 50310
-0.00085 0.00007 -0.00060 -0.326 -0.003 -9.628 -0.04 0.01 0.04 0.00 0.00000 0.14280 0.01736 -0.00230 0.98959 0.0004 -0.0350 0.000 -0.212 0.378 -0.110 -0.190 -0.714 50410
-0.00182 -0.00167 -0.00048 -0.317 -0.032 -9.645 -0.07 0.01 0.10 0.00 0.00000 0.14304 0.01805 -0.00225 0.98954 0.0006 -0.0363 0.000 -0.204 0.434 -0.118 -0.185 -0.713 50510
0.00045 -0.00116 -0.00007 -0.320 -0.006 -9.634 -0.06 0.01 0.09 0.00 0.00000 0.14468 0.01775 -0.00213 0.98931 0.0009 -0.0357 -0.000 -0.203 0.421 -0.123 -0.182 -0.705 50610
0.00148 0.00012 0.00028 -0.315 0.006 -9.636 -0.02 -0.00 0.06 0.00 0.00000 0.14459 0.01676 -0.00193 0.98934 0.0010 -0.0337 -0.001 -0.204 0.390 -0.119 -0.184 -0.697 50710
0.00262 -0.00058 -0.00034 -0.322 0.008 -9.636 -0.00 0.00 0.04 0.00 0.00000 0.14439 0.01633 -0.00204 0.98938 0.0006 -0.0329 -0.001 -0.215 0.375 -0.114 -0.190 -0.694 50810
0.00145 -0.00057 0.00030 -0.308 -0.013 -9.630 0.01 0.01 0.00 0.00 0.00000 0.14372 0.01612 -0.00232 0.98948 0.0000 -0.0325 -0.001 -0.230 0.344 -0.109 -0.196 -0.696 50910
-0.00007 -0.00105 0.00001 -0.343 -0.011 -9.635 0.02 0.02 0.00 0.00 0.00000 0.14331 0.01597 -0.00254 0.98954 -0.0004 -0.0323 -0.001 -0.245 0.343 -0.103 -0.201 -0.701 51010
-0.00140 0.00017 -0.00056 -0.329 -0.018 -9.599 0.03 0.03 0.00 0.00 0.00000 0.14401 0.01578 -0.00295 0.98944 -0.0012 -0.0320 -0.000 -0.268 0.351 -0.098 -0.208 -0.711 51110
0.00038 -0.00106 -0.00003 -0.320 -0.016 -9.644 0.02 0.04 0.01 0.00 0.00000 0.14284 0.01606 -0.00300 0.98960 -0.0013 -0.0326 -0.001 -0.275 0.359 -0.094 -0.209 -0.716 51210
-0.00019 0.00062 -0.00071 -0.326 0.003 -9.614 0.01 0.04 0.02 0.00 0.00000 0.14383 0.01642 -0.00302 0.98946 -0.0012 -0.0333 -0.000 -0.278 0.379 -0.094 -0.208 -0.722 51310
0.00139 0.00013 -0.00017 -0.322 -0.001 -9.630 -0.00 0.02 0.03 0.00 0.00000 0.14341 0.01665 -0.00242 0.98951 -0.0000 -0.0336 -0.000 -0.250 0.388 -0.092 -0.201 -0.724 51410
-0.00001 0.00013 -0.00000 -0.308 -0.000 -9.670 -0.01 -0.00 0.02 0.00 0.00000 0.14485 0.01681 -0.00160 0.98930 0.0017 -0.0337 -0.001 -0.205 0.374 -0.089 -0.190 -0.721 51510
0.00000 -0.00107 0.00000 -0.313 -0.006 -9.640 -0.00 -0.01 0.00 0.00 0.00000 0.14423 0.01663 -0.00126 0.98940 0.0023 -0.0332 -0.000 -0.181 0.362 -0.086 -0.184 -0.721 51610
0.00087 -0.00105 -0.00086 -0.314 -0.016 -9.612 0.00 -0.02 -0.00 0.00 0.00000 0.14491 0.01629 -0.00119 0.98930 0.0023 -0.0325 -0.000 -0.175 0.360 -0.082 -0.185 -0.727 51710
0.00185 -0.00057 -0.00101 -0.334 0.001 -9.608 -0.00 -0.02 0.08 0.00 0.00000 0.14638 0.01660 -0.00111 0.98908 0.0026 -0.0331 -0.000 -0.171 0.434 -0.082 -0.186 -0.730 51810
-0.00007 -0.00109 -0.00074 -0.323 -0.003 -9.573 -0.02 -0.03 0.18 0.00 0.00000 0.14541 0.01714 -0.00103 0.98922 0.0029 -0.0342 -0.000 -0.160 0.514 -0.084 -0.182 -0.724 51910
0.00048 -0.00109 -0.00009 -0.312 0.001 -9.594 -0.02 -0.01 0.12 0.00 0.00000 0.14644 0.01713 -0.00140 0.98906 0.0022 -0.0343 -0.000 -0.175 0.444 -0.088 -0.185 -0.701 52010
0.00082 0.00013 -0.00082 -0.324 -0.001 -9.606 -0.00 0.00 0.03 0.00 0.00000 0.14308 0.01681 -0.00204 0.98956 0.0007 -0.0338 -0.000 -0.212 0.369 -0.090 -0.194 -0.691 52110
0.00045 -0.00059 -0.00001 -0.312 -0.016 -9.630 -0.01 -0.00 0.01 0.00 0.00000 0.14149 0.01700 -0.00163 0.98979 0.0015 -0.0341 -0.000 -0.198 0.342 -0.089 -0.191 -0.690 52210
0.00147 0.00011 -0.00012 -0.319 -0.013 -9.611 -0.03 -0.03 0.00 0.00 0.00000 0.14084 0.01739 -0.00079 0.98987 0.0033 -0.0346 0.000 -0.155 0.335 -0.089 -0.180 -0.697 52310
-0.00005 -0.00110 -0.00068 -0.328 0.008 -9.644 -0.04 -0.04 0.04 0.00 0.00000 0.14208 0.01756 -0.00057 0.98969 0.0038 -0.0349 0.000 -0.136 0.368 -0.091 -0.176 -0.702 52410
0.00052 0.00010 -0.00004 -0.314 -0.006 -9.588 -0.04 -0.05 0.05 0.00 0.00000 0.14307 0.01763 -0.00053 0.98955 0.0039 -0.0350 0.000 -0.128 0.392 -0.095 -0.174 -0.710 52510
0.00136 -0.00058 -0.00090 -0.333 -0.003 -9.604 -0.02 -0.03 0.12 0.00 0.00000 0.14389 0.01696 -0.00095 0.98944 0.0029 -0.0338 -0.000 -0.153 0.452 -0.096 -0.182 -0.711 52610
0.00036 -0.00103 -0.00079 -0.312 -0.027 -9.583 0.01 -0.02 0.17 0.00 0.00000 0.14512 0.01623 -0.00149 0.98927 0.0017 -0.0325 -0.001 -0.186 0.492 -0.094 -0.195 -0.701 52710
0.00096 -0.00058 -0.00012 -0.323 -0.008 -9.603 -0.01 -0.02 0.15 0.00 0.00000 0.14449 0.01686 -0.00119 0.98936 0.0025 -0.0337 -0.001 -0.177 0.456 -0.092 -0.193 -0.681 52810
-0.00064 -0.00111 0.00056 -0.303 -0.008 -9.558 -0.05 -0.04 0.13 0.00 0.00000 0.14518 0.01775 -0.00079 0.98924 0.0035 -0.0353 0.000 -0.147 0.434 -0.095 -0.183 -0.670 52910
0.00047 0.00010 -0.00009 -0.317 -0.016 -9.596 -0.04 -0.02 0.12 0.00 0.00000 0.14630 0.01759 -0.00132 0.98908 0.0025 -0.0351 0.000 -0.165 0.416 -0.100 -0.186 -0.662 53010
0.00128 0.00013 -0.00093 -0.320 -0.008 -9.585 -0.01 0.01 0.12 0.00 0.00000 0.14579 0.01698 -0.00225 0.98916 0.0004 -0.0342 -0.000 -0.220 0.417 -0.105 -0.200 -0.660 53110
0.00088 -0.00060 -0.00014 -0.338 -0.006 -9.606 -0.01 0.01 0.13 0.00 0.00000 0.14598 0.01708 -0.00234 0.98913 0.0003 -0.0344 -0.000 -0.235 0.420 -0.107 -0.204 -0.657 53210
0.00080 0.00011 -0.00089 -0.333 0.000 -9.567 -0.03 0.01 0.15 0.00 0.00000 0.14744 0.01736 -0.00218 0.98891 0.0008 -0.0349 0.000 -0.228 0.439 -0.109 -0.200 -0.656 53310
0.00001 -0.00113 0.00046 -0.306 -0.018 -9.607 -0.05 0.00 0.19 0.00 0.00000 0.14582 0.01797 -0.00192 0.98914 0.0014 -0.0361 0.000 -0.208 0.458 -0.115 -0.193 -0.647 53410
0.00142 0.00004 -0.00021 -0.318 -0.003 -9.590 -0.09 0.00 0.21 0.00 0.00000 0.14617 0.01865 -0.00167 0.98908 0.0021 -0.0373 0.001 -0.190 0.463 -0.123 -0.184 -0.635 53510
0.00131 -0.00066 -0.00093 -0.308 -0.029 -9.621 -0.07 0.00 0.17 0.00 0.00000 0.14593 0.01832 -0.00176 0.98912 0.0018 -0.0367 0.000 -0.191 0.421 -0.130 -0.183 -0.621 53610
0.00074 -0.00111 -0.00133 -0.321 -0.016 -9.603 -0.04 0.01 0.15 0.00 0.00000 0.14502 0.01754 -0.00201 0.98927 0.0011 -0.0353 -0.000 -0.212 0.399 -0.132 -0.188 -0.616 53710
0.00031 0.00014 -0.00079 -0.301 -0.001 -9.618 -0.02 0.01 0.11 0.00 0.00000 0.14504 0.01706 -0.00207 0.98927 0.0008 -0.0343 -0.000 -0.224 0.369 -0.130 -0.191 -0.615 53810
-0.00017 -0.00105 -0.00073 -0.341 -0.003 -9.590 -0.01 0.01 0.09 0.00 0.00000 0.14517 0.01670 -0.00204 0.98926 0.0008 -0.0336 -0.000 -0.227 0.355 -0.125 -0.193 -0.621 53910
0.00045 -0.00106 -0.00005 -0.326 -0.022 -9.594 -0.02 -0.02 0.11 0.00 0.00000 0.14410 0.01691 -0.00118 0.98941 0.0025 -0.0338 -0.000 -0.182 0.375 -0.118 -0.182 -0.629 54010
0.00137 -0.00106 -0.00091 -0.311 -0.016 -9.628 -0.04 -0.04 0.12 0.00 0.00000 0.14503 0.01719 -0.00046 0.98927 0.0040 -0.0341 -0.000 -0.139 0.389 -0.113 -0.172 -0.633 54110
0.00087 0.00066 -0.00085 -0.342 0.006 -9.610 -0.01 -0.04 0.08 0.00 0.00000 0.14493 0.01667 -0.00065 0.98929 0.0035 -0.0331 -0.001 -0.146 0.362 -0.108 -0.176 -0.637 54210
0.00094 -0.00052 -0.00011 -0.323 -0.013 -9.616 0.00 -0.03 0.06 0.00 0.00000 0.14429 0.01620 -0.00095 0.98940 0.0027 -0.0323 -0.001 -0.162 0.346 -0.102 -0.183 -0.642 54310
0.00034 0.00017 -0.00076 -0.315 -0.011 -9.620 -0.01 -0.02 0.10 0.00 0.00000 0.14335 0.01674 -0.00133 0.98952 0.0021 -0.0335 -0.000 -0.178 0.381 -0.101 -0.188 -0.647 54410
-0.00015 -0.00060 -0.00072 -0.332 -0.008 -9.588 -0.04 -0.00 0.13 0.00 0.00000 0.14474 0.01742 -0.00165 0.98931 0.0017 -0.0349 0.000 -0.193 0.417 -0.106 -0.191 -0.653 54510
-0.00005 0.00013 0.00002 -0.311 -0.006 -9.637 -0.03 -0.00 0.07 0.00 0.00000 0.14330 0.01731 -0.00161 0.98952 0.0017 -0.0347 -0.000 -0.196 0.363 -0.108 -0.191 -0.652 54610
0.00033 0.00015 -0.00075 -0.314 -0.008 -9.606 -0.02 -0.00 0.03 0.00 0.00000 0.14311 0.01707 -0.00156 0.98955 0.0017 -0.0342 0.000 -0.195 0.332 -0.108 -0.190 -0.657 54710
0.00082 0.00013 -0.00083 -0.334 -0.006 -9.611 -0.04 -0.01 0.07 0.00 0.00000 0.14404 0.01737 -0.00140 0.98941 0.0022 -0.0347 0.000 -0.186 0.367 -0.109 -0.188 -0.664 54810
0.00093 -0.00061 -0.00009 -0.311 -0.016 -9.611 -0.05 -0.01 0.09 0.00 0.00000 0.14301 0.01774 -0.00125 0.98956 0.0025 -0.0354 0.000 -0.173 0.394 -0.113 -0.185 -0.671 54910
0.00044 -0.00057 -0.00004 -0.327 -0.006 -9.622 -0.03 -0.02 0.11 0.00 0.00000 0.14406 0.01718 -0.00116 0.98941 0.0026 -0.0343 -0.000 -0.171 0.414 -0.113 -0.185 -0.671 55010
0.00092 -0.00100 -0.00012 -0.329 0.008 -9.633 0.00 -0.03 0.13 0.00 0.00000 0.14468 0.01627 -0.00112 0.98934 0.0024 -0.0325 -0.002 -0.177 0.420 -0.107 -0.190 -0.666 55110
0.00043 -0.00054 -0.00004 -0.310 -0.008 -9.608 -0.01 -0.02 0.19 0.00 0.00000 0.14371 0.01669 -0.00130 0.98947 0.0022 -0.0334 -0.001 -0.182 0.469 -0.105 -0.192 -0.659 55210
0.00000 -0.00058 0.00049 -0.305 -0.025 -9.579 -0.04 -0.01 0.24 0.00 0.00000 0.14445 0.01741 -0.00157 0.98935 0.0019 -0.0349 -0.000 -0.187 0.494 -0.109 -0.194 -0.643 55310
0.00091 0.00065 -0.00012 -0.327 -0.001 -9.597 -0.03 -0.02 0.14 0.00 0.00000 0.14482 0.01709 -0.00133 0.98930 0.0023 -0.0342 -0.001 -0.183 0.407 -0.108 -0.193 -0.626 55410
0.00044 0.00018 -0.00007 -0.316 -0.003 -9.634 -0.01 -0.03 0.12 0.00 0.00000 0.14591 0.01676 -0.00115 0.98915 0.0026 -0.0335 -0.001 -0.176 0.373 -0.105 -0.193 -0.618 55510
-0.00010 0.00016 -0.00070 -0.308 0.001 -9.635 -0.03 -0.05 0.15 0.00 0.00000 0.14365 0.01711 -0.00064 0.98947 0.0036 -0.0340 -0.000 -0.148 0.393 -0.103 -0.185 -0.617 55610
-0.00008 -0.00106 -0.00068 -0.317 -0.018 -9.571 -0.05 -0.06 0.16 0.00 0.00000 0.14268 0.01739 -0.00033 0.98961 0.0042 -0.0345 0.000 -0.122 0.414 -0.103 -0.178 -0.622 55710
0.00033 -0.00057 -0.00076 -0.303 -0.029 -9.620 -0.04 -0.02 0.20 0.00 0.00000 0.14365 0.01732 -0.00136 0.98947 0.0022 -0.0346 -0.000 -0.167 0.442 -0.109 -0.191 -0.618 55810
-0.00003 -0.00058 0.00049 -0.315 0.011 -9.586 -0.03 0.00 0.22 0.00 0.00000 0.14424 0.01723 -0.00208 0.98939 0.0008 -0.0347 -0.000 -0.217 0.454 -0.116 -0.203 -0.611 55910
0.00039 0.00016 -0.00006 -0.310 -0.001 -9.583 -0.03 -0.00 0.17 0.00 0.00000 0.14542 0.01709 -0.00184 0.98921 0.0013 -0.0343 -0.000 -0.213 0.414 -0.116 -0.202 -0.604 56010
0.00138 -0.00104 -0.00016 -0.312 -0.003 -9.604 -0.03 -0.01 0.16 0.00 0.00000 0.14378 0.01701 -0.00146 0.98946 0.0019 -0.0340 -0.000 -0.195 0.395 -0.114 -0.198 -0.600 56110
0.00043 0.00015 -0.00004 -0.344 -0.022 -9.669 -0.05 -0.03 0.11 0.00 0.00000 0.14403 0.01743 -0.00117 0.98941 0.0027 -0.0348 -0.000 -0.171 0.344 -0.115 -0.192 -0.596 56210
0.00045 -0.00157 -0.00001 -0.315 0.001 -9.636 -0.06 -0.03 0.09 0.00 0.00000 0.14228 0.01781 -0.00096 0.98966 0.0031 -0.0355 0.000 -0.159 0.333 -0.118 -0.188 -0.598 56310
-0.00009 -0.00061 0.00003 -0.331 -0.020 -9.581 -0.07 0.00 0.20 0.00 0.00000 0.14318 0.01797 -0.00200 0.98953 0.0011 -0.0361 0.002 -0.202 0.423 -0.129 -0.200 -0.606 56410
0.00122 0.00108 -0.00089 -0.333 -0.003 -9.588 -0.07 0.03 0.24 0.00 0.00000 0.14427 0.01800 -0.00259 0.98937 0.0000 -0.0363 0.000 -0.243 0.465 -0.139 -0.209 -0.606 56510
0.00029 -0.00108 -0.00078 -0.333 -0.008 -9.612 -0.06 0.00 0.31 0.00 0.00000 0.14473 0.01765 -0.00203 0.98931 0.0010 -0.0355 -0.000 -0.225 0.506 -0.141 -0.202 -0.589 56610
0.00040 0.00015 -0.00006 -0.321 -0.003 -9.568 -0.05 -0.00 0.33 0.00 0.00000 0.14544 0.01744 -0.00169 0.98921 0.0017 -0.0350 -0.001 -0.206 0.507 -0.140 -0.197 -0.564 56710
-0.00026 -0.00055 -0.00120 -0.312 -0.011 -9.609 -0.03 0.00 0.21 0.00 0.00000 0.14483 0.01695 -0.00206 0.98930 0.0008 -0.0341 -0.001 -0.224 0.393 -0.138 -0.203 -0.544 56810
0.00035 -0.00053 -0.00005 -0.324 -0.000 -9.599 -0.02 0.01 0.18 0.00 0.00000 0.14509 0.01668 -0.00229 0.98927 0.0003 -0.0336 -0.000 -0.244 0.364 -0.135 -0.210 -0.541 56910
-0.00003 -0.00054 -0.00000 -0.320 0.006 -9.596 -0.04 -0.04 0.21 0.00 0.00000 0.14521 0.01709 -0.00079 0.98925 0.0033 -0.0340 0.000 -0.171 0.386 -0.127 -0.191 -0.545 57010
-0.00006 0.00017 -0.00072 -0.334 -0.039 -9.594 -0.06 -0.09 0.22 0.00 0.00000 0.14492 0.01739 0.00027 0.98928 0.0055 -0.0343 -0.000 -0.094 0.401 -0.120 -0.172 -0.550 57110
0.00145 0.00015 -0.00022 -0.317 0.000 -9.614 -0.07 -0.07 0.20 0.00 0.00000 0.14756 0.01764 -0.00028 0.98889 0.0046 -0.0349 -0.000 -0.110 0.386 -0.124 -0.176 -0.551 57210
0.00044 -0.00059 -0.00006 -0.327 -0.006 -9.598 -0.08 -0.04 0.18 0.00 0.00000 0.14557 0.01779 -0.00094 0.98918 0.0033 -0.0354 0.000 -0.141 0.371 -0.130 -0.184 -0.555 57310
0.00042 0.00014 -0.00008 -0.332 0.006 -9.636 -0.07 -0.03 0.16 0.00 0.00000 0.14635 0.01764 -0.00131 0.98907 0.0025 -0.0353 0.000 -0.166 0.359 -0.135 -0.191 -0.557 57410
-0.00016 -0.00106 -0.00074 -0.308 -0.013 -9.598 -0.06 -0.02 0.17 0.00 0.00000 0.14634 0.01749 -0.00149 0.98907 0.0021 -0.0350 0.000 -0.177 0.371 -0.138 -0.194 -0.564 57510
0.00087 -0.00056 -0.00013 -0.322 0.003 -9.604 -0.05 -0.01 0.21 0.00 0.00000 0.14587 0.01722 -0.00166 0.98915 0.0017 -0.0345 0.000 -0.193 0.408 -0.139 -0.198 -0.569 57610
0.00077 0.00018 -0.00086 -0.317 0.000 -9.602 -0.04 -0.01 0.21 0.00 0.00000 0.14596 0.01701 -0.00182 0.98914 0.0013 -0.0341 -0.000 -0.204 0.415 -0.139 -0.203 -0.570 57710
0.00027 -0.00057 -0.00079 -0.322 -0.006 -9.577 -0.06 -0.00 0.26 0.00 0.00000 0.14598 0.01734 -0.00201 0.98913 0.0010 -0.0349 0.000 -0.212 0.458 -0.141 -0.205 -0.569 57810
-0.00011 -0.00059 0.00000 -0.326 -0.003 -9.578 -0.07 0.00 0.30 0.00 0.00000 0.14530 0.01766 -0.00215 0.98922 0.0008 -0.0355 -0.000 -0.220 0.480 -0.146 -0.206 -0.558 57910
0.00086 0.00013 -0.00009 -0.308 -0.021 -9.578 -0.08 -0.00 0.20 0.00 0.00000 0.14376 0.01791 -0.00188 0.98944 0.0014 -0.0360 0.000 -0.206 0.389 -0.149 -0.202 -0.547 58010
-0.00081 -0.00060 0.00010 -0.319 -0.013 -9.633 -0.09 -0.01 0.13 0.00 0.00000 0.14458 0.01804 -0.00165 0.98932 0.0019 -0.0361 0.000 -0.191 0.322 -0.153 -0.197 -0.544 58110
0.00047 -0.00058 0.00044 -0.353 0.001 -9.606 -0.08 -0.02 0.23 0.00 0.00000 0.14411 0.01778 -0.00137 0.98940 0.0023 -0.0355 0.001 -0.179 0.399 -0.154 -0.193 -0.547 58210
0.00032 -0.00057 -0.00074 -0.345 -0.021 -9.631 -0.07 -0.03 0.26 0.00 0.00000 0.14309 0.01750 -0.00119 0.98955 0.0026 -0.0349 -0.000 -0.166 0.431 -0.153 -0.190 -0.547 58310
-0.00018 -0.00101 -0.00070 -0.307 -0.011 -9.615 -0.04 -0.02 0.23 0.00 0.00000 0.14411 0.01676 -0.00159 0.98941 0.0016 -0.0336 -0.001 -0.189 0.407 -0.150 -0.198 -0.542 58410
0.00035 0.00024 -0.00001 -0.307 -0.003 -9.616 -0.01 -0.01 0.20 0.00 0.00000 0.14297 0.01605 -0.00201 0.98959 0.0006 -0.0323 -0.002 -0.218 0.380 -0.143 -0.206 -0.540 58510
0.00026 0.00021 -0.00076 -0.312 -0.018 -9.609 -0.03 -0.00 0.14 0.00 0.00000 0.14436 0.01650 -0.00211 0.98938 0.0005 -0.0332 -0.000 -0.224 0.333 -0.139 -0.210 -0.545 58610
-0.00005 -0.00055 0.00050 -0.330 -0.006 -9.643 -0.05 -0.00 0.10 0.00 0.00000 0.14447 0.01721 -0.00207 0.98935 0.0008 -0.0346 0.000 -0.219 0.294 -0.139 -0.208 -0.550 58710
0.00029 0.00011 -0.00075 -0.319 -0.011 -9.620 -0.10 -0.00 0.16 0.00 0.00000 0.14350 0.01821 -0.00177 0.98948 0.0017 -0.0365 0.002 -0.197 0.343 -0.145 -0.200 -0.558 58810
0.00032 0.00007 -0.00074 -0.315 -0.001 -9.593 -0.14 -0.01 0.18 0.00 0.00000 0.14270 0.01906 -0.00144 0.98957 0.0025 -0.0381 0.003 -0.175 0.383 -0.157 -0.192 -0.569 58910
-0.00020 0.00007 -0.00069 -0.334 -0.011 -9.632 -0.13 0.01 0.19 0.00 0.00000 0.14392 0.01885 -0.00219 0.98940 0.0010 -0.0379 0.001 -0.207 0.391 -0.171 -0.198 -0.572 59010
-0.00082 -0.00063 0.00060 -0.332 -0.011 -9.621 -0.11 0.04 0.19 0.00 0.00000 0.14433 0.01846 -0.00287 0.98935 -0.0003 -0.0373 0.000 -0.249 0.394 -0.182 -0.207 -0.572 59110
-0.00022 0.00020 -0.00068 -0.322 0.001 -9.603 -0.04 0.00 0.18 0.00 0.00000 0.14343 0.01665 -0.00220 0.98951 0.0004 -0.0336 -0.001 -0.237 0.393 -0.174 -0.204 -0.575 59210
0.00086 0.00078 -0.00008 -0.318 -0.013 -9.553 0.00 -0.03 0.20 0.00 0.00000 0.14343 0.01521 -0.00151 0.98954 0.0013 -0.0305 -0.002 -0.208 0.417 -0.154 -0.201 -0.581 59310
-0.00014 0.00029 0.00003 -0.312 -0.008 -9.599 0.01 -0.00 0.18 0.00 0.00000 0.14383 0.01524 -0.00212 0.98948 0.0001 -0.0307 -0.003 -0.234 0.402 -0.142 -0.212 -0.582 59410
-0.00027 -0.00095 -0.00070 -0.313 -0.020 -9.628 0.00 0.01 0.17 0.00 0.00000 0.14450 0.01558 -0.00276 0.98937 -0.0009 -0.0316 -0.002 -0.268 0.387 -0.136 -0.225 -0.579 59510
-0.00088 -0.00094 0.00059 -0.346 -0.003 -9.597 0.02 0.04 0.12 0.00 0.00000 0.14493 0.01533 -0.00346 0.98931 -0.0024 -0.0313 -0.001 -0.316 0.347 -0.130 -0.241 -0.583 59610
-0.00034 0.00028 -0.00067 -0.321 -0.013 -9.608 0.04 0.06 0.10 0.00 0.00000 0.14297 0.01509 -0.00388 0.98960 -0.0033 -0.0309 -0.001 -0.345 0.331 -0.122 -0.248 -0.591 59710
0.00076 -0.00046 -0.00006 -0.336 -0.016 -9.596 0.02 0.04 0.09 0.00 0.00000 0.14252 0.01559 -0.00324 0.98966 -0.0019 -0.0318 -0.000 -0.317 0.331 -0.114 -0.240 -0.602 59810
0.00031 0.00024 -0.00000 -0.303 0.001 -9.611 -0.00 0.02 0.10 0.00 0.00000 0.14227 0.01607 -0.00261 0.98969 -0.0006 -0.0325 0.000 -0.281 0.346 -0.108 -0.228 -0.613 59910
0.00038 -0.00044 0.00048 -0.313 0.001 -9.622 0.02 0.01 0.06 0.00 0.00000 0.14194 0.01536 -0.00236 0.98975 -0.0003 -0.0310 -0.001 -0.266 0.330 -0.099 -0.224 -0.623 60010
-0.00136 0.00032 0.00022 -0.328 0.008 -9.614 0.06 0.00 0.04 0.00 0.00000 0.14201 0.01466 -0.00228 0.98975 -0.0003 -0.0296 -0.001 -0.263 0.317 -0.087 -0.223 -0.633 60110
-0.00015 0.00080 0.00003 -0.330 -0.006 -9.587 0.05 0.00 0.04 0.00 0.00000 0.14392 0.01486 -0.00219 0.98947 -0.0000 -0.0300 -0.000 -0.256 0.332 -0.078 -0.225 -0.647 60210
-0.00086 -0.00043 0.00014 -0.312 -0.018 -9.630 0.04 0.00 0.05 0.00 0.00000 0.14256 0.01521 -0.00209 0.98966 0.0001 -0.0307 -0.000 -0.246 0.343 -0.072 -0.223 -0.657 60310
-0.00002 0.00021 0.00002 -0.323 0.013 -9.592 -0.03 -0.05 0.11 0.00 0.00000 0.14396 0.01679 -0.00043 0.98943 0.0039 -0.0333 0.001 -0.150 0.407 -0.069 -0.192 -0.666 60410
0.00052 0.00016 -0.00002 -0.334 -0.003 -9.601 -0.08 -0.10 0.13 0.00 0.00000 0.14337 0.01783 0.00066 0.98950 0.0064 -0.0351 0.001 -0.064 0.424 -0.073 -0.166 -0.668 60510
-0.00073 -0.00054 0.00014 -0.341 -0.006 -9.616 -0.05 -0.07 0.08 0.00 0.00000 0.14278 0.01726 -0.00016 0.98960 0.0046 -0.0342 0.000 -0.091 0.378 -0.081 -0.173 -0.664 60610
-0.00005 -0.00100 0.00002 -0.339 -0.025 -9.583 -0.03 -0.05 0.06 0.00 0.00000 0.14430 0.01673 -0.00093 0.98939 0.0029 -0.0333 0.000 -0.133 0.372 -0.087 -0.186 -0.668 60710
-0.00002 -0.00051 0.00049 -0.322 -0.008 -9.600 -0.02 -0.03 0.06 0.00 0.00000 0.14530 0.01673 -0.00134 0.98924 0.0021 -0.0335 0.000 -0.162 0.375 -0.091 -0.194 -0.674 60810
-0.00009 -0.00052 0.00001 -0.314 -0.008 -9.610 -0.02 -0.02 0.06 0.00 0.00000 0.14507 0.01680 -0.00156 0.98927 0.0017 -0.0337 0.000 -0.176 0.374 -0.095 -0.197 -0.680 60910
0.00036 -0.00096 -0.00005 -0.319 -0.001 -9.597 0.00 -0.02 0.02 0.00 0.00000 0.14532 0.01600 -0.00181 0.98925 0.0010 -0.0321 -0.000 -0.198 0.350 -0.093 -0.206 -0.687 61010
-0.00079 -0.00044 0.00060 -0.321 -0.003 -9.634 0.03 -0.02 0.01 0.00 0.00000 0.14416 0.01544 -0.00193 0.98943 0.0006 -0.0311 -0.001 -0.212 0.340 -0.086 -0.211 -0.693 61110
-0.00015 0.00030 0.00002 -0.326 -0.029 -9.624 0.04 -0.00 -0.09 0.00 0.00000 0.14414 0.01519 -0.00232 0.98943 -0.0002 -0.0307 -0.001 -0.232 0.262 -0.079 -0.220 -0.704 61210
-0.00017 -0.00091 0.00002 -0.346 -0.003 -9.692 0.05 0.00 -0.13 0.00 0.00000 0.14459 0.01510 -0.00258 0.98937 -0.0007 -0.0306 -0.001 -0.254 0.223 -0.072 -0.227 -0.711 61310
0.00039 0.00026 0.00046 -0.322 0.003 -9.637 0.02 -0.00 -0.05 0.00 0.00000 0.14305 0.01580 -0.00221 0.98958 0.0001 -0.0319 0.000 -0.236 0.288 -0.067 -0.221 -0.721 61410
0.00026 0.00072 -0.00072 -0.309 -0.011 -9.638 0.00 -0.01 -0.02 0.00 0.00000 0.14206 0.01632 -0.00194 0.98972 0.0007 -0.0328 0.000 -0.214 0.340 -0.067 -0.214 -0.734 61510
0.00016 0.00020 -0.00121 -0.326 -0.000 -9.639 -0.00 0.01 0.02 0.00 0.00000 0.14259 0.01676 -0.00257 0.98963 -0.0003 -0.0339 0.000 -0.241 0.385 -0.075 -0.221 -0.742 61610
-0.00028 -0.00054 -0.00067 -0.312 -0.008 -9.616 -0.01 0.03 0.04 0.00 0.00000 0.14275 0.01701 -0.00303 0.98960 -0.0011 -0.0345 0.000 -0.268 0.409 -0.085 -0.228 -0.745 61710
0.00032 0.00024 0.00001 -0.331 -0.011 -9.617 0.02 0.01 0.06 0.00 0.00000 0.14115 0.01606 -0.00249 0.98985 -0.0004 -0.0325 -0.001 -0.253 0.427 -0.081 -0.222 -0.742 61810
0.00033 0.00028 -0.00001 -0.338 0.011 -9.598 0.04 -0.00 0.06 0.00 0.00000 0.14322 0.01550 -0.00216 0.98956 0.0001 -0.0313 -0.001 -0.243 0.422 -0.074 -0.221 -0.736 61910
0.00023 0.00023 -0.00071 -0.329 -0.006 -9.607 0.01 0.00 0.04 0.00 0.00000 0.14158 0.01620 -0.00238 0.98979 -0.0001 -0.0327 -0.000 -0.246 0.401 -0.074 -0.221 -0.731 62010
0.00032 0.00069 0.00000 -0.318 -0.021 -9.628 -0.00 0.02 0.03 0.00 0.00000 0.14165 0.01677 -0.00258 0.98977 -0.0003 -0.0339 0.000 -0.252 0.389 -0.079 -0.223 -0.727 62110
-0.00016 0.00075 0.00007 -0.352 -0.021 -9.627 0.04 0.01 0.05 0.00 0.00000 0.14125 0.01567 -0.00249 0.98984 -0.0005 -0.0317 -0.001 -0.256 0.404 -0.074 -0.224 -0.724 62210
-0.00928 -0.00042 0.00001 -0.335 -0.363 -9.626 0.07 0.00 0.06 0.00 0.00000 0.14198 0.01498 -0.00250 0.98975 -0.0006 -0.0303 -0.003 -0.203 0.407 -0.063 -0.218 -0.713 62310
0.02801 0.00714 0.00329 -0.280 -0.231 -9.443 0.09 0.04 0.13 0.00 0.00000 0.14184 0.01475 -0.00155 0.98977 0.0011 -0.0296 -0.000 -0.248 0.477 -0.056 -0.225 -0.714 62410
-0.07675 0.48931 0.08782 -1.222 -0.446 -12.446 0.10 0.05 0.07 0.00 0.00000 0.13709 0.00753 -0.00335 0.99052 -0.0045 -0.0158 -0.002 -0.604 0.062 -0.094 -0.437 -0.344 62510
-0.12400 -0.03003 -0.08671 0.907 0.342 -11.699 0.12 0.09 -0.04 0.00 0.00000 0.13763 -0.01995 -0.00820 0.99024 -0.0217 0.0372 -0.008 -0.603 0.064 -0.101 -0.505 -0.280 62610
0.20533 -1.33302 0.20827 -0.370 0.651 -12.813 0.04 0.02 -0.12 0.00 0.00000 0.13558 0.02663 -0.00859 0.99036 -0.0098 -0.0551 0.001 -0.463 0.012 -0.104 -0.516 -0.252 62710
0.10229 -0.14874 0.75288 -1.604 -0.243 -13.120 0.02 0.02 -0.24 0.00 0.00000 0.11328 0.06466 -0.00833 0.99142 -0.0018 -0.1304 0.002 -0.512 0.022 -0.088 -0.454 -0.298 62810
0.31601 0.04897 1.22093 -1.381 -0.423 -11.512 -0.01 0.03 -0.16 0.00 0.00000 0.06244 0.06472 0.00009 0.99594 0.0083 -0.1292 -0.008 0.090 -0.147 0.066 0.139 -0.212 62910
0.39416 -0.44715 1.62295 -0.431 -0.610 -10.345 -0.08 0.02 -0.02 0.00 0.00000 -0.01168 0.07703 0.01464 0.99685 0.0277 -0.1545 -0.002 0.192 -0.200 0.041 0.163 -0.167 63010
0.37264 -0.50620 2.00247 -1.144 -1.251 -8.482 -0.14 0.02 0.08 0.00 0.00000 -0.10882 0.10348 0.02945 0.98822 0.0365 -0.2125 0.009 -0.162 -0.017 -0.048 -0.200 -0.151 63110
0.14388 -0.24448 1.85719 -1.432 -1.509 -7.836 -0.16 0.03 0.09 0.00 0.00000 -0.20718 0.12219 0.03304 0.97007 0.0139 -0.2534 0.008 -0.412 0.021 -0.055 -0.323 -0.119 63210
0.20134 -0.31039 1.77373 -1.203 -0.095 -6.535 -0.22 -0.01 0.14 0.00 0.00000 -0.29911 0.13446 0.03143 0.94417 -0.0219 -0.2762 0.000 -0.451 0.165 -0.043 -0.362 -0.073 63310
0.31843 -0.26341 1.54122 -1.723 0.403 -6.335 -0.16 -0.00 0.14 0.00 0.00000 -0.38290 0.14342 0.03993 0.91171 -0.0387 -0.2964 -0.001 -0.160 0.134 -0.045 -0.246 -0.009 63410
0.33529 -0.15491 1.13785 -1.880 -0.045 -6.688 -0.12 0.02 0.12 0.00 0.00000 -0.45041 0.14896 0.04610 0.87909 -0.0557 -0.3082 -0.001 -0.153 0.022 -0.035 -0.151 0.067 63510
0.08636 -0.16534 0.49578 -2.128 0.709 -7.486 -0.01 -0.01 -0.07 0.00 0.00000 -0.49737 0.14951 0.05799 0.85258 -0.0524 -0.3179 0.001 0.013 -0.134 -0.034 -0.101 0.051 63610
-0.10669 0.25411 -0.03012 -1.857 1.452 -7.749 0.08 -0.06 -0.16 0.00 0.00000 -0.51664 0.14945 0.05426 0.84130 -0.0663 -0.3126 0.003 0.149 -0.330 -0.031 -0.052 0.067 63710
-0.08089 0.43397 -0.05322 -1.752 1.869 -7.799 0.04 -0.12 -0.83 0.00 0.00000 -0.52146 0.13805 0.03928 0.84111 -0.0810 -0.2767 0.000 0.233 -0.885 -0.030 -0.001 0.050 63810
0.18499 0.50305 0.21787 -2.009 2.625 -8.839 0.03 -0.17 -1.07 0.00 0.00000 -0.53026 0.11994 0.02744 0.83885 -0.0834 -0.2324 -0.003 0.205 -0.969 -0.036 0.012 -0.013 63910
0.24937 0.51806 0.43121 -1.335 2.025 -8.640 0.01 -0.07 -1.02 0.00 0.00000 -0.55189 0.09221 0.01641 0.82863 -0.0757 -0.1717 -0.000 0.095 -1.048 -0.032 0.031 -0.029 64010
0.13499 0.22497 0.45649 -1.153 0.933 -9.794 -0.03 0.01 -1.05 0.00 0.00000 -0.57560 0.07382 0.00731 0.81435 -0.0737 -0.1290 -0.002 -0.041 -1.280 -0.023 0.054 -0.018 64110
0.12278 0.11932 0.32325 -1.467 0.967 -10.048 -0.20 0.15 -0.87 0.00 0.00000 -0.60890 0.06585 0.00502 0.79048 -0.0727 -0.1104 -0.008 -0.215 -1.188 -0.022 0.088 -0.001 64210
0.06437 0.03634 -0.03028 -0.902 1.089 -9.718 -0.30 0.22 -0.79 0.00 0.00000 -0.61516 0.06214 0.00168 0.78594 -0.0742 -0.0999 -0.002 -0.360 -1.108 -0.018 0.119 0.007 64310
0.12915 -0.10354 -0.21611 -0.878 0.880 -9.476 -0.41 0.25 -0.46 0.00 0.00000 -0.61307 0.06329 0.00519 0.78746 -0.0698 -0.1062 0.003 -0.494 -0.880 -0.012 0.138 0.023 64410
0.13713 -0.08913 -0.18981 -1.209 0.134 -9.297 -0.50 0.28 -0.37 0.00 0.00000 -0.60735 0.06398 0.01477 0.79171 -0.0547 -0.1195 -0.007 -0.270 -1.115 -0.102 0.205 0.187 64510
0.01199 0.11352 -0.27580 -0.998 -0.062 -9.562 -0.70 0.34 -0.22 0.00 0.00000 -0.60478 0.06260 0.01402 0.79380 -0.0538 -0.1166 0.004 -0.499 -0.918 -0.119 0.221 0.220 64610
-0.03174 0.16456 -0.16651 -0.891 0.006 -9.538 -0.81 0.38 -0.17 0.00 0.00000 -0.59507 0.05634 0.00699 0.80166 -0.0561 -0.0988 0.005 -0.647 -0.857 -0.123 0.223 0.235 64710
0.04165 -0.15915 -0.16197 -0.822 -0.161 -9.796 -0.58 0.28 -0.00 0.00 0.00000 -0.59021 0.05512 0.01561 0.80520 -0.0401 -0.1074 0.002 -0.452 -0.692 -0.129 0.216 0.247 64810
-0.02872 0.01347 -0.11693 -1.132 0.045 -9.143 -0.38 0.22 0.04 0.00 0.00000 -0.58134 0.05363 0.02273 0.81156 -0.0256 -0.1137 -0.003 -0.280 -0.622 -0.133 0.209 0.260 64910
-0.17721 -0.01510 -0.03748 -0.957 -0.111 -8.942 -0.09 0.11 0.21 0.00 0.00000 -0.58268 0.05235 0.02378 0.81066 -0.0225 -0.1128 0.000 0.034 -0.439 -0.143 0.199 0.267 65010
-0.13288 -0.18429 0.00791 -0.942 0.118 -9.182 0.08 0.03 0.24 0.00 0.00000 -0.57870 0.05834 0.02295 0.81312 -0.0304 -0.1217 -0.002 0.218 -0.406 -0.150 0.186 0.275 65110
-0.01973 -0.09049 0.09420 -1.061 1.223 -9.147 0.10 0.03 0.09 0.00 0.00000 -0.58168 0.06617 0.02414 0.81035 -0.0382 -0.1357 -0.001 0.147 -0.359 -0.149 0.175 0.243 65210
-0.02860 0.10876 0.08863 -1.076 0.248 -9.213 0.07 0.05 0.04 0.00 0.00000 -0.58130 0.06627 0.02175 0.81069 -0.0421 -0.1331 -0.005 0.207 -0.545 -0.149 0.173 0.258 65310
0.09629 0.20571 -0.00957 -1.092 0.375 -9.423 0.10 0.07 0.06 0.00 0.00000 -0.58303 0.05752 0.01807 0.81020 -0.0380 -0.1145 0.005 0.203 -0.555 -0.143 0.173 0.263 65410
0.07920 -0.21078 -0.01824 -0.814 0.199 -9.431 0.12 0.06 0.10 0.00 0.00000 -0.57983 0.05249 0.02141 0.81276 -0.0262 -0.1103 0.006 0.247 -0.568 -0.141 0.176 0.282 65510
0.09806 -0.04696 0.01522 -1.293 0.230 -9.496 0.12 0.05 -0.02 0.00 0.00000 -0.57859 0.05771 0.02889 0.81305 -0.0199 -0.1276 0.004 0.250 -0.673 -0.135 0.179 0.289 65610
0.00813 0.02675 0.04145 -1.097 0.217 -9.182 0.12 0.04 -0.04 0.00 0.00000 -0.58147 0.05464 0.03085 0.81114 -0.0135 -0.1248 -0.005 0.256 -0.713 -0.137 0.180 0.299 65710
-0.03790 0.01669 -0.00354 -1.087 0.461 -9.367 0.07 0.01 -0.07 0.00 0.00000 -0.58153 0.05648 0.02818 0.81107 -0.0201 -0.1247 0.008 0.193 -0.750 -0.134 0.175 0.313 65810
-0.02117 0.03789 -0.04872 -1.281 0.203 -9.637 0.04 0.00 -0.09 0.00 0.00000 -0.58426 0.05787 0.02662 0.80906 -0.0247 -0.1250 0.004 0.193 -0.792 -0.135 0.167 0.317 65910
0.02882 0.15651 0.02593 -1.293 0.296 -9.159 -0.00 0.01 -0.07 0.00 0.00000 -0.57946 0.05540 0.02306 0.81278 -0.0268 -0.1170 -0.003 0.142 -0.787 -0.134 0.156 0.332 66010
-0.00359 0.05223 0.14622 -1.086 0.092 -9.384 -0.04 0.00 -0.05 0.00 0.00000 -0.59020 0.05106 0.02103 0.80536 -0.0265 -0.1072 0.009 0.119 -0.794 -0.132 0.144 0.345 66110
-0.13516 0.16454 0.08690 -0.618 0.180 -9.559 -0.08 0.01 -0.04 0.00 0.00000 -0.59035 0.04793 0.01226 0.80562 -0.0369 -0.0918 0.007 0.076 -0.783 -0.133 0.131 0.349 66210
-0.00784 -0.14279 -0.04908 -0.830 0.586 -9.471 -0.10 0.02 -0.02 0.00 0.00000 -0.58792 0.05056 0.00808 0.80729 -0.0466 -0.0912 0.007 -0.013 -0.754 -0.129 0.121 0.361 66310
0.19233 -0.09052 0.03784 -0.689 0.620 -9.388 -0.03 -0.01 -0.01 0.00 0.00000 -0.58426 0.05076 0.01648 0.80980 -0.0327 -0.1016 0.009 0.009 -0.752 -0.120 0.111 0.378 66410
0.25499 -0.10490 -0.01437 -0.956 0.315 -9.262 -0.01 -0.02 0.02 0.00 0.00000 -0.58422 0.04729 0.02858 0.80970 -0.0090 -0.1102 -0.005 0.063 -0.745 -0.118 0.100 0.387 66510
0.13702 0.00710 -0.08251 -1.012 -0.287 -9.386 -0.06 -0.04 -0.05 0.00 0.00000 -0.58260 0.04512 0.03812 0.81060 0.0092 -0.1178 0.009 0.140 -0.831 -0.128 0.094 0.401 66610
-0.00464 0.09325 -0.07365 -1.062 -0.306 -9.528 -0.09 -0.06 -0.07 0.00 0.00000 -0.58299 0.04276 0.03761 0.81047 0.0111 -0.1134 0.007 0.143 -0.862 -0.139 0.084 0.405 66710
0.03594 0.00226 -0.05898 -0.781 0.157 -9.522 -0.04 -0.02 0.00 0.00 0.00000 -0.58027 0.03965 0.03721 0.81259 0.0145 -0.1078 0.006 0.102 -0.813 -0.142 0.081 0.415 66810
0.07613 0.00817 -0.08511 -1.119 -0.108 -9.454 -0.02 -0.00 0.02 0.00 0.00000 -0.57817 0.03746 0.04008 0.81406 0.0220 -0.1075 0.005 0.147 -0.795 -0.144 0.085 0.424 66910
0.06584 -0.03525 -0.12609 -1.086 -0.336 -9.603 -0.04 0.03 -0.00 0.00 0.00000 -0.57482 0.03656 0.04325 0.81631 0.0287 -0.1096 0.002 0.161 -0.803 -0.146 0.092 0.425 67010
0.04544 -0.11067 -0.06873 -1.193 -0.448 -9.728 -0.06 0.04 -0.03 0.00 0.00000 -0.57362 0.03701 0.04738 0.81690 0.0351 -0.1151 -0.000 0.156 -0.814 -0.148 0.100 0.420 67110
0.00751 -0.04835 -0.07610 -1.336 -0.488 -9.517 -0.08 0.10 0.00 0.00 0.00000 -0.57157 0.03825 0.04965 0.81815 0.0377 -0.1196 0.001 0.143 -0.783 -0.149 0.116 0.420 67210
-0.02941 -0.01903 -0.04757 -1.123 -0.362 -9.347 -0.08 0.12 0.02 0.00 0.00000 -0.57421 0.03977 0.04965 0.81623 0.0356 -0.1222 0.005 0.121 -0.784 -0.149 0.135 0.432 67310
-0.02945 -0.00037 -0.01452 -1.244 -0.662 -9.519 -0.05 0.01 0.01 0.00 0.00000 -0.57578 0.04230 0.05192 0.81485 0.0362 -0.1290 0.005 0.214 -0.773 -0.158 0.135 0.429 67410
-0.04455 -0.03539 0.01645 -1.283 -0.723 -9.579 -0.03 -0.06 0.01 0.00 0.00000 -0.57399 0.04453 0.05262 0.81595 0.0350 -0.1334 0.005 0.282 -0.768 -0.170 0.124 0.425 67510
-0.03158 0.02297 0.02491 -1.271 -0.271 -9.198 -0.00 -0.07 0.02 0.00 0.00000 -0.57625 0.04436 0.05153 0.81443 0.0331 -0.1320 -0.004 0.268 -0.799 -0.180 0.113 0.437 67610
-0.03798 -0.05391 -0.00007 -1.466 -0.306 -9.333 0.01 -0.06 0.03 0.00 0.00000 -0.57779 0.04632 0.05186 0.81321 0.0311 -0.1356 0.008 0.290 -0.818 -0.186 0.111 0.453 67710
-0.00896 -0.07252 -0.03041 -1.187 -0.445 -9.019 -0.01 -0.10 0.12 0.00 0.00000 -0.57664 0.04942 0.05262 0.81380 0.0289 -0.1416 -0.000 0.297 -0.707 -0.194 0.095 0.450 67810
0.01768 0.00753 -0.04888 -1.218 -0.413 -9.537 -0.03 -0.12 0.13 0.00 0.00000 -0.57643 0.04924 0.05315 0.81392 0.0300 -0.1419 0.007 0.296 -0.710 -0.204 0.079 0.451 67910
0.06595 0.03687 -0.03178 -1.136 -0.459 -9.450 -0.00 -0.10 0.18 0.00 0.00000 -0.57458 0.04449 0.05276 0.81552 0.0352 -0.1336 0.007 0.317 -0.669 -0.212 0.071 0.455 68010
0.10748 0.06986 -0.01726 -1.057 -0.173 -9.411 0.00 -0.08 0.18 0.00 0.00000 -0.57235 0.03941 0.05475 0.81722 0.0447 -0.1274 0.007 0.284 -0.680 -0.215 0.067 0.461 68110
0.08932 0.01253 0.01189 -1.279 -0.054 -9.459 0.00 -0.05 0.19 0.00 0.00000 -0.57046 0.03737 0.05800 0.81841 0.0527 -0.1276 0.005 0.250 -0.678 -0.214 0.067 0.464 68210
0.00754 -0.14099 0.05157 -1.661 -0.304 -9.622 0.01 -0.02 0.19 0.00 0.00000 -0.57126 0.04038 0.06261 0.81737 0.0567 -0.1380 0.000 0.282 -0.650 -0.215 0.074 0.455 68310
-0.07709 -0.05477 -0.00683 -1.516 -0.910 -9.196 0.03 0.01 0.12 0.00 0.00000 -0.57407 0.04266 0.06229 0.81531 0.0531 -0.1415 -0.008 0.368 -0.628 -0.220 0.087 0.445 68410
-0.11159 -0.05475 -0.06215 -1.238 -0.491 -9.232 0.04 0.03 0.11 0.00 0.00000 -0.57387 0.04384 0.05768 0.81572 0.0442 -0.1381 -0.009 0.342 -0.687 -0.218 0.102 0.446 68510
-0.06494 0.01507 -0.02463 -1.352 -0.450 -9.754 -0.01 0.05 0.17 0.00 0.00000 -0.57241 0.04982 0.05411 0.81665 0.0316 -0.1438 -0.002 0.287 -0.624 -0.213 0.112 0.430 68610
-0.02082 0.01359 0.07670 -1.598 -0.429 -9.666 -0.04 0.08 0.21 0.00 0.00000 -0.57257 0.05253 0.05205 0.81650 0.0251 -0.1459 -0.001 0.240 -0.570 -0.208 0.121 0.414 68710
0.03784 0.04154 0.02228 -1.500 -0.410 -9.284 -0.08 0.02 0.34 0.00 0.00000 -0.57253 0.05389 0.05331 0.81636 0.0256 -0.1495 0.008 0.206 -1.133 -0.189 0.185 0.911 68810
0.05575 -0.04277 0.08048 -1.452 -0.092 -9.308 -0.09 -0.03 0.37 0.00 0.00000 -0.57210 0.05278 0.05625 0.81654 0.0318 -0.1511 0.011 0.157 -1.059 -0.187 0.180 0.983 68910
0.03460 -0.11263 0.09890 -1.407 -0.320 -9.371 -0.05 -0.08 0.30 0.00 0.00000 -0.57163 0.05613 0.06244 0.81619 0.0382 -0.1637 0.010 0.227 -1.116 -0.189 0.170 1.012 69010
0.00078 0.01871 0.02374 -1.277 -0.392 -9.336 -0.01 -0.12 0.28 0.00 0.00000 -0.57237 0.05735 0.06503 0.81539 0.0409 -0.1687 0.011 0.291 -1.152 -0.198 0.162 1.032 69110
-0.06272 -0.02638 0.01640 -1.438 -0.603 -9.298 -0.02 -0.09 0.18 0.00 0.00000 -0.57028 0.05788 0.06199 0.81705 0.0357 -0.1660 0.009 0.323 -1.234 -0.203 0.161 1.051 69210
-0.05449 0.07083 0.01359 -1.470 -0.368 -9.343 -0.02 -0.06 0.14 0.00 0.00000 -0.57023 0.05908 0.05803 0.81729 0.0278 -0.1634 0.007 0.291 -1.300 -0.203 0.164 1.060 69310
-0.02670 0.09971 0.04172 -1.472 -0.195 -9.561 0.00 -0.01 0.16 0.00 0.00000 -0.56986 0.05551 0.05340 0.81811 0.0243 -0.1522 0.002 0.274 -1.291 -0.199 0.171 1.061 69410
-0.02133 -0.04621 0.04690 -1.340 -0.245 -9.496 0.01 0.01 0.19 0.00 0.00000 -0.56960 0.05447 0.05186 0.81847 0.0231 -0.1488 0.003 0.280 -1.271 -0.194 0.184 1.069 69510
-0.02663 -0.07723 0.02544 -1.445 -0.077 -9.598 -0.02 0.01 0.16 0.00 0.00000 -0.57105 0.05710 0.05182 0.81728 0.0197 -0.1531 0.001 0.225 -1.302 -0.192 0.192 1.072 69610
-0.07128 0.00868 0.09155 -1.334 -0.261 -9.468 -0.05 0.00 0.15 0.00 0.00000 -0.57491 0.06077 0.04931 0.81446 0.0105 -0.1563 0.005 0.227 -1.319 -0.188 0.195 1.079 69710
-0.13442 0.09610 0.01109 -1.078 -0.141 -9.597 -0.04 0.00 0.14 0.00 0.00000 -0.57432 0.06150 0.04264 0.81520 -0.0011 -0.1498 0.004 0.232 -1.328 -0.190 0.198 1.079 69810
-0.15902 0.03852 -0.05905 -1.130 0.329 -9.407 -0.03 0.00 0.13 0.00 0.00000 -0.57352 0.06140 0.03430 0.81616 -0.0145 -0.1400 0.007 0.189 -1.337 -0.194 0.203 1.089 69910
-0.09820 0.03397 -0.00810 -1.433 0.478 -9.447 0.01 0.05 0.17 0.00 0.00000 -0.57146 0.06291 0.02808 0.81772 -0.0262 -0.1354 0.004 0.190 -1.296 -0.185 0.212 1.094 70010
0.00448 0.12435 -0.03841 -1.544 0.390 -9.491 0.05 0.09 0.17 0.00 0.00000 -0.57123 0.06130 0.02545 0.81810 -0.0286 -0.1297 0.002 0.211 -1.288 -0.174 0.227 1.093 70110
0.04804 0.01151 -0.02929 -1.331 0.339 -9.443 0.07 0.06 0.12 0.00 0.00000 -0.57011 0.05825 0.02601 0.81908 -0.0239 -0.1254 0.004 0.236 -1.337 -0.167 0.237 1.100 70210
0.09191 -0.01711 -0.07657 -1.255 0.217 -9.616 0.08 0.01 0.09 0.00 0.00000 -0.56971 0.05796 0.03116 0.81920 -0.0151 -0.1308 0.003 0.275 -1.383 -0.166 0.240 1.101 70310
0.07368 -0.00713 -0.15785 -1.350 -0.125 -9.728 0.06 -0.00 0.14 0.00 0.00000 -0.56805 0.05546 0.03436 0.82040 -0.0066 -0.1304 0.001 0.322 -1.354 -0.172 0.239 1.101 70410
0.05878 -0.02497 -0.12830 -1.236 0.170 -9.455 0.04 0.00 0.16 0.00 0.00000 -0.56438 0.05532 0.03785 0.82278 -0.0001 -0.1341 0.006 0.276 -1.351 -0.178 0.241 1.111 70510
-0.03382 0.12634 -0.00339 -1.575 -0.433 -9.380 0.03 0.00 0.12 0.00 0.00000 -0.56816 0.05320 0.03851 0.82029 0.0027 -0.1314 0.007 0.352 -1.367 -0.190 0.244 1.111 70610
-0.12462 0.03109 -0.01819 -1.027 0.013 -9.882 0.01 -0.02 0.09 0.00 0.00000 -0.56834 0.05374 0.03308 0.82036 -0.0068 -0.1261 0.001 0.314 -1.396 -0.199 0.237 1.107 70710
-0.08622 0.02472 -0.08418 -1.024 0.314 -9.573 -0.02 -0.02 0.09 0.00 0.00000 -0.56824 0.05588 0.02795 0.82048 -0.0177 -0.1237 0.006 0.242 -1.400 -0.204 0.228 1.109 70810
-0.01923 -0.04902 -0.02308 -1.518 -0.161 -9.090 -0.05 -0.01 0.11 0.00 0.00000 -0.57179 0.05838 0.02688 0.81787 -0.0229 -0.1265 -0.004 0.263 -1.382 -0.204 0.217 1.112 70910
0.02011 0.03882 0.03342 -1.580 -0.442 -8.931 -0.06 -0.03 0.16 0.00 0.00000 -0.57592 0.05804 0.02745 0.81497 -0.0222 -0.1265 -0.001 0.301 -1.307 -0.210 0.203 1.109 71010
0.00257 0.01024 0.03088 -1.978 -0.852 -8.417 -0.06 -0.04 0.19 0.00 0.00000 -0.58228 0.05598 0.02819 0.81056 -0.0196 -0.1239 0.005 0.299 -1.155 -0.218 0.188 1.083 71110
-0.09463 0.05587 0.04441 -1.214 0.185 -9.440 -0.09 -0.04 0.17 0.00 0.00000 -0.59132 0.05656 0.02533 0.80405 -0.0263 -0.1212 0.008 0.199 -1.284 -0.217 0.177 1.089 71210
-0.03107 -0.00151 0.00873 -2.212 -1.044 -8.657 -0.10 -0.04 0.14 0.00 0.00000 -0.59941 0.05784 0.02303 0.79801 -0.0328 -0.1202 0.002 0.281 -1.168 -0.218 0.158 1.056 71310
0.05056 0.03565 0.04763 -0.593 1.136 -9.914 -0.07 -0.02 0.14 0.00 0.00000 -0.60147 0.05571 0.02346 0.79659 -0.0298 -0.1172 0.000 0.100 -1.144 -0.213 0.147 1.026 71410
0.03647 -0.01336 0.03003 -1.659 -0.307 -9.374 -0.05 0.01 0.15 0.00 0.00000 -0.60394 0.05330 0.02454 0.79486 -0.0255 -0.1146 0.006 0.235 -1.246 -0.214 0.153 1.035 71510
0.01572 -0.01921 -0.01417 -2.189 -0.852 -8.831 -0.04 0.02 0.15 0.00 0.00000 -0.60961 0.05337 0.02689 0.79043 -0.0227 -0.1174 -0.003 0.319 -1.151 -0.224 0.155 1.011 71610
0.01009 -0.01825 0.01814 -0.201 1.416 -10.220 -0.02 -0.00 0.12 0.00 0.00000 -0.61430 0.05283 0.02797 0.78680 -0.0210 -0.1177 -0.004 0.172 -1.085 -0.224 0.152 0.985 71710
0.00327 -0.02142 0.01909 -0.996 0.234 -9.736 -0.04 0.01 0.05 0.00 0.00000 -0.61825 0.05295 0.02775 0.78369 -0.0221 -0.1175 0.000 0.187 -1.263 -0.225 0.156 0.979 71810
0.02090 0.02081 0.03941 -1.191 0.237 -9.369 -0.06 0.03 0.04 0.00 0.00000 -0.61683 0.05206 0.02780 0.78487 -0.0207 -0.1162 0.006 0.164 -1.320 -0.220 0.164 0.990 71910
0.05017 0.04275 0.00488 -2.047 -0.901 -8.530 -0.05 0.01 0.12 0.00 0.00000 -0.60749 0.05069 0.02888 0.79218 -0.0159 -0.1156 0.001 0.267 -1.120 -0.221 0.160 0.962 72010
0.05624 0.02782 0.00216 -1.124 0.217 -9.451 -0.04 -0.01 0.16 0.00 0.00000 -0.59814 0.04988 0.03116 0.79922 -0.0099 -0.1172 0.007 0.192 -1.185 -0.218 0.156 0.967 72110
0.01547 0.00582 0.02172 -1.233 0.342 -9.304 -0.02 -0.03 0.12 0.00 0.00000 -0.58644 0.04944 0.03222 0.80783 -0.0059 -0.1179 -0.002 -0.236 -1.247 0.110 0.058 0.987 72210
-0.03099 0.04218 0.00119 -1.099 -0.000 -9.698 -0.01 -0.05 0.09 0.00 0.00000 -0.57615 0.04886 0.03025 0.81531 -0.0070 -0.1148 0.003 -0.101 -1.275 0.109 0.051 0.979 72310
-0.00469 0.00067 -0.05581 -1.072 0.155 -9.597 -0.02 -0.06 0.10 0.00 0.00000 -0.56692 0.05013 0.02872 0.82174 -0.0096 -0.1152 0.005 -0.102 -1.273 0.103 0.043 0.977 72410
0.00061 0.04899 -0.02610 -1.125 0.105 -9.383 -0.05 -0.05 0.11 0.00 0.00000 -0.55869 0.04924 0.02710 0.82746 -0.0102 -0.1120 0.009 -0.109 -1.274 0.097 0.038 0.986 72510
-0.00098 0.05324 0.03924 -0.998 0.166 -9.580 -0.02 0.00 0.05 0.00 0.00000 -0.55469 0.04640 0.02478 0.83038 -0.0103 -0.1047 0.003 -0.124 -1.312 0.107 0.039 0.981 72610
-0.02547 0.05554 0.03055 -0.952 0.183 -9.552 0.02 0.07 0.02 0.00 0.00000 -0.55364 0.04226 0.02163 0.83140 -0.0108 -0.0943 0.002 -0.127 -1.336 0.126 0.049 0.982 72710
-0.02122 0.02473 0.01394 -0.801 0.228 -9.868 0.02 0.04 0.02 0.00 0.00000 -0.55146 0.04142 0.01873 0.83295 -0.0145 -0.0897 -0.001 -0.127 -1.326 0.136 0.051 0.973 72810
0.03929 -0.01392 0.00606 -0.883 0.360 -9.746 0.00 -0.01 0.02 0.00 0.00000 -0.55045 0.04260 0.02009 0.83353 -0.0134 -0.0932 0.002 -0.148 -1.314 0.139 0.045 0.963 72910
0.00723 -0.01071 -0.00371 -0.911 0.046 -9.627 0.00 0.01 0.08 0.00 0.00000 -0.55586 0.04214 0.02172 0.82992 -0.0108 -0.0942 0.003 -0.111 -1.276 0.138 0.047 0.961 73010
-0.00687 -0.03799 0.01850 -0.910 0.077 -9.589 0.02 0.04 0.09 0.00 0.00000 -0.55356 0.04203 0.02150 0.83146 -0.0108 -0.0938 0.003 -0.115 -1.261 0.144 0.053 0.961 73110
0.00524 -0.00918 0.00947 -0.991 0.162 -9.564 0.02 0.06 0.03 0.00 0.00000 -0.55024 0.04311 0.02115 0.83362 -0.0122 -0.0953 0.003 -0.138 -1.300 0.156 0.059 0.958 73210
0.00874 -0.00406 0.00236 -1.006 0.160 -9.642 0.01 0.06 0.01 0.00 0.00000 -0.55055 0.04318 0.02169 0.83339 -0.0114 -0.0960 0.002 -0.150 -1.323 0.163 0.064 0.951 73310
-0.00376 -0.00682 0.00666 -0.944 0.021 -9.615 -0.01 0.02 0.05 0.00 0.00000 -0.54954 0.04443 0.02223 0.83398 -0.0118 -0.0987 0.004 -0.141 -1.296 0.162 0.062 0.948 73410
0.02522 -0.01249 0.02332 -0.928 0.058 -9.593 -0.03 -0.01 0.08 0.00 0.00000 -0.54957 0.04538 0.02337 0.83388 -0.0109 -0.1015 0.006 -0.153 -1.271 0.160 0.053 0.946 73510
0.02199 -0.00108 0.00966 -1.024 0.211 -9.535 -0.04 -0.05 0.14 0.00 0.00000 -0.54722 0.04576 0.02485 0.83536 -0.0086 -0.1038 0.008 -0.172 -1.215 0.154 0.039 0.948 73610
-0.03539 0.02497 -0.00381 -1.055 0.164 -9.587 -0.05 -0.09 0.18 0.00 0.00000 -0.54769 0.04623 0.02490 0.83503 -0.0091 -0.1046 0.008 -0.153 -1.172 0.139 0.023 0.945 73710
-0.00592 0.01112 0.00145 -0.969 0.088 -9.640 -0.05 -0.04 0.15 0.00 0.00000 -0.54730 0.04537 0.02249 0.83540 -0.0121 -0.1006 0.005 -0.154 -1.174 0.137 0.012 0.935 73810
-0.00564 -0.02370 0.02089 -0.968 0.129 -9.470 -0.04 0.01 0.14 0.00 0.00000 -0.54887 0.04510 0.02099 0.83442 -0.0145 -0.0984 0.005 -0.180 -1.187 0.143 0.014 0.939 73910
0.00469 0.01706 0.00552 -0.995 0.272 -9.564 -0.01 0.01 0.11 0.00 0.00000 -0.54938 0.04486 0.02116 0.83409 -0.0140 -0.0982 0.004 -0.189 -1.197 0.147 0.016 0.930 74010
-0.02460 -0.01029 0.00146 -0.975 0.176 -9.617 -0.00 -0.00 0.10 0.00 0.00000 -0.55043 0.04473 0.02140 0.83340 -0.0136 -0.0982 0.003 -0.154 -1.201 0.145 0.018 0.921 74110
-0.02320 -0.00419 0.00649 -0.929 0.108 -9.639 -0.00 0.00 0.06 0.00 0.00000 -0.55308 0.04560 0.02105 0.83161 -0.0155 -0.0993 0.003 -0.138 -1.229 0.145 0.020 0.911 74210
-0.00180 -0.01566 0.03870 -0.990 0.089 -9.553 -0.00 0.00 0.05 0.00 0.00000 -0.55534 0.04591 0.02054 0.83009 -0.0169 -0.0992 0.004 -0.141 -1.246 0.149 0.022 0.906 74310
0.01389 -0.02735 0.01357 -1.062 0.208 -9.643 0.00 0.02 0.07 0.00 0.00000 -0.55849 0.04624 0.02126 0.82794 -0.0165 -0.1004 0.002 -0.158 -1.209 0.152 0.027 0.895 74410
0.01365 -0.00828 0.00040 -0.995 0.121 -9.458 0.01 0.04 0.10 0.00 0.00000 -0.56326 0.04543 0.02202 0.82473 -0.0149 -0.0999 0.005 -0.142 -1.192 0.152 0.038 0.898 74510
-0.01154 -0.02102 0.00325 -1.038 0.022 -9.389 0.03 0.01 0.14 0.00 0.00000 -0.56733 0.04659 0.02417 0.82181 -0.0132 -0.1042 0.007 -0.097 -1.172 0.148 0.045 0.910 74610
-0.01537 -0.02520 0.00582 -1.159 0.016 -9.196 0.04 -0.01 0.16 0.00 0.00000 -0.57216 0.04780 0.02503 0.81836 -0.0138 -0.1070 -0.006 -0.071 -1.143 0.145 0.042 0.911 74710
0.00810 0.00312 0.02769 -1.173 -0.021 -9.162 0.02 -0.00 0.19 0.00 0.00000 -0.57492 0.04806 0.02425 0.81643 -0.0157 -0.1065 -0.006 -0.079 -1.111 0.145 0.040 0.911 74810
0.00671 -0.00369 -0.00750 -1.356 -0.006 -9.236 0.00 0.02 0.21 0.00 0.00000 -0.57903 0.04820 0.02473 0.81350 -0.0156 -0.1072 -0.008 -0.107 -1.105 0.145 0.043 0.922 74910
-0.01654 0.01328 0.00104 -1.265 0.182 -9.367 -0.02 -0.03 0.20 0.00 0.00000 -0.58454 0.04921 0.02598 0.80945 -0.0155 -0.1102 0.008 -0.147 -1.119 0.145 0.037 0.929 75010
-0.02267 -0.02808 0.02025 -0.312 1.115 -10.132 -0.02 -0.12 0.20 0.00 0.00000 -0.59460 0.05119 0.02720 0.80192 -0.0173 -0.1147 -0.000 -0.228 -0.996 0.156 0.008 0.897 75110
0.00458 0.00564 0.01239 -0.278 0.895 -10.323 -0.03 -0.10 0.17 0.00 0.00000 -0.59997 0.05075 0.02635 0.79796 -0.0189 -0.1128 -0.003 -0.234 -1.006 0.168 -0.010 0.887 75210
0.00801 0.01327 -0.01025 -2.093 -0.996 -8.876 -0.04 -0.03 0.17 0.00 0.00000 -0.60948 0.04966 0.02614 0.79081 -0.0193 -0.1106 -0.002 -0.090 -0.927 0.161 -0.016 0.829 75310
-0.02114 0.01333 -0.01345 -1.341 -0.060 -9.500 -0.01 0.00 0.18 0.00 0.00000 -0.61652 0.04803 0.02686 0.78540 -0.0171 -0.1088 0.003 -0.117 -1.003 0.141 -0.001 0.816 75410
-0.03946 0.00578 -0.00322 -1.837 -0.763 -9.090 0.04 0.01 0.18 0.00 0.00000 -0.62646 0.04770 0.02590 0.77755 -0.0196 -0.1068 -0.007 0.029 -0.934 0.121 0.011 0.796 75510
-0.00017 -0.00208 0.01375 -0.689 0.962 -9.832 0.01 -0.03 0.20 0.00 0.00000 -0.63440 0.04958 0.02513 0.77099 -0.0243 -0.1085 -0.000 -0.173 -0.842 0.124 0.004 0.739 75610
-0.00194 -0.00651 0.00826 -1.315 0.321 -9.500 -0.02 -0.05 0.20 0.00 0.00000 -0.64329 0.05095 0.02567 0.76349 -0.0265 -0.1110 0.005 -0.181 -0.896 0.129 -0.000 0.724 75710
-0.00215 0.02856 -0.00856 -1.626 -0.497 -9.356 -0.03 -0.09 0.21 0.00 0.00000 -0.64913 0.05111 0.02658 0.75849 -0.0262 -0.1122 0.008 -0.082 -0.884 0.135 -0.012 0.721 75810
0.02647 0.00873 -0.00436 -1.257 -0.558 -9.432 -0.03 -0.13 0.22 0.00 0.00000 -0.65179 0.05081 0.02767 0.75618 -0.0245 -0.1131 0.008 -0.065 -0.859 0.146 -0.032 0.711 75910
0.00417 -0.00394 0.00187 -1.505 -0.499 -9.800 -0.01 -0.14 0.18 0.00 0.00000 -0.65800 0.04918 0.02884 0.75085 -0.0215 -0.1120 0.001 -0.063 -0.846 0.148 -0.049 0.673 76010
-0.02267 -0.00808 0.02810 -1.483 -0.316 -9.799 0.01 -0.13 0.16 0.00 0.00000 -0.66250 0.04864 0.02854 0.74693 -0.0219 -0.1107 0.000 -0.060 -0.846 0.149 -0.061 0.640 76110
0.00851 0.02319 0.00153 -1.045 0.657 -9.296 -0.01 -0.10 0.18 0.00 0.00000 -0.66857 0.04895 0.02721 0.74153 -0.0252 -0.1092 -0.007 -0.236 -0.831 0.159 -0.065 0.656 76210
0.03288 0.02371 -0.02075 -0.971 0.720 -9.236 -0.05 -0.08 0.19 0.00 0.00000 -0.67232 0.04809 0.02702 0.73819 -0.0249 -0.1075 -0.006 -0.315 -0.799 0.168 -0.068 0.647 76310
0.05452 0.02172 -0.00552 -1.582 -0.428 -9.463 -0.09 -0.10 0.04 0.00 0.00000 -0.66440 0.04666 0.02716 0.74541 -0.0216 -0.1058 0.004 -0.195 -0.915 0.169 -0.069 0.618 76410
0.02078 0.02950 0.01529 -1.562 -0.556 -9.050 -0.11 -0.11 -0.00 0.00 0.00000 -0.65111 0.04515 0.02707 0.75714 -0.0178 -0.1038 -0.003 -0.181 -0.931 0.166 -0.076 0.588 76510
0.01761 -0.00802 -0.00563 -1.196 0.289 -9.406 -0.10 -0.08 -0.01 0.00 0.00000 -0.63198 0.04393 0.02678 0.77327 -0.0141 -0.1019 0.006 -0.290 -0.975 0.173 -0.076 0.585 76610
0.01573 0.00741 0.00438 -1.083 -0.006 -9.582 -0.08 -0.04 -0.00 0.00 0.00000 -0.61764 0.04372 0.02683 0.78477 -0.0119 -0.1019 0.003 -0.271 -0.963 0.185 -0.075 0.565 76710
0.00167 0.00374 0.01138 -1.030 0.093 -9.455 -0.06 -0.06 0.09 0.00 0.00000 -0.60675 0.04305 0.02664 0.79327 -0.0100 -0.1008 0.006 -0.259 -0.877 0.189 -0.077 0.560 76810
0.03414 -0.01407 0.01283 -1.004 0.133 -9.749 -0.04 -0.07 0.11 0.00 0.00000 -0.59510 0.04248 0.02695 0.80207 -0.0073 -0.1004 0.001 -0.248 -0.798 0.190 -0.084 0.525 76910
0.04242 0.02015 -0.00838 -0.927 0.171 -9.609 -0.05 -0.02 0.04 0.00 0.00000 -0.58555 0.04098 0.02642 0.80916 -0.0052 -0.0974 0.002 -0.294 -0.818 0.205 -0.086 0.492 77010
0.02075 0.01166 -0.00992 -1.030 -0.047 -9.638 -0.08 0.01 0.00 0.00 0.00000 -0.57769 0.03974 0.02597 0.81486 -0.0036 -0.0949 0.001 -0.316 -0.826 0.224 -0.084 0.458 77110
0.03825 -0.00881 -0.00444 -0.975 -0.112 -9.654 -0.04 0.03 0.04 0.00 0.00000 -0.57108 0.03866 0.02712 0.81953 0.0002 -0.0945 0.000 -0.302 -0.766 0.243 -0.081 0.426 77210
0.01862 -0.01344 0.00515 -0.938 -0.077 -9.624 -0.01 0.03 0.07 0.00 0.00000 -0.56667 0.03723 0.02891 0.82259 0.0053 -0.0941 0.001 -0.286 -0.702 0.256 -0.078 0.392 77310
-0.01227 -0.00873 0.01379 -0.995 0.053 -9.533 -0.00 0.09 0.01 0.00 0.00000 -0.56409 0.03702 0.02812 0.82439 0.0046 -0.0929 0.001 -0.329 -0.714 0.282 -0.070 0.363 77410
0.01098 0.00497 -0.00796 -1.008 0.018 -9.595 0.00 0.12 0.00 0.00 0.00000 -0.56355 0.03711 0.02767 0.82478 0.0038 -0.0925 -0.000 -0.360 -0.696 0.310 -0.060 0.326 77510
0.01059 -0.00139 0.00218 -0.986 -0.096 -9.758 0.01 0.11 -0.03 0.00 0.00000 -0.56386 0.03651 0.02842 0.82456 0.0057 -0.0923 -0.002 -0.345 -0.672 0.326 -0.053 0.278 77610
-0.02065 -0.00826 0.01162 -0.885 -0.079 -9.659 0.01 0.09 -0.05 0.00 0.00000 -0.56210 0.03684 0.02838 0.82576 0.0054 -0.0928 0.000 -0.340 -0.656 0.334 -0.048 0.234 77710
-0.01086 -0.00096 0.00564 -1.030 0.058 -9.682 0.00 0.09 -0.04 0.00 0.00000 -0.56076 0.03784 0.02776 0.82664 0.0034 -0.0938 0.000 -0.375 -0.607 0.342 -0.048 0.187 77810
0.00093 -0.00196 -0.01904 -1.037 -0.051 -9.659 -0.01 0.09 -0.04 0.00 0.00000 -0.55998 0.03897 0.02788 0.82711 0.0024 -0.0958 0.001 -0.381 -0.562 0.345 -0.050 0.137 77910
-0.00781 0.00429 0.00028 -1.072 -0.129 -9.640 0.00 0.03 -0.04 0.00 0.00000 -0.55852 0.04018 0.02962 0.82798 0.0042 -0.0998 0.003 -0.334 -0.513 0.338 -0.057 0.085 78010
-0.02523 -0.00430 0.02123 -0.990 -0.001 -9.625 0.01 -0.00 -0.05 0.00 0.00000 -0.55745 0.04069 0.02956 0.82867 0.0036 -0.1005 0.004 -0.312 -0.468 0.328 -0.070 0.032 78110
-0.02772 -0.00380 -0.03190 -0.983 0.003 -9.607 0.00 0.00 -0.05 0.00 0.00000 -0.55505 0.04147 0.02780 0.83031 0.0001 -0.0999 0.003 -0.321 -0.414 0.322 -0.080 -0.024 78210
-0.00296 0.03452 -0.01543 -1.125 -0.003 -9.553 0.00 0.02 -0.04 0.00 0.00000 -0.55383 0.04222 0.02752 0.83109 -0.0010 -0.1008 0.003 -0.334 -0.339 0.319 -0.089 -0.085 78310
0.01565 0.03347 0.01956 -0.967 -0.034 -9.574 0.00 -0.02 -0.02 0.00 0.00000 -0.55389 0.04097 0.02746 0.83112 0.0002 -0.0987 0.004 -0.312 -0.248 0.311 -0.106 -0.156 78410
0.03990 0.02707 0.02033 -0.963 0.029 -9.607 0.01 -0.06 -0.01 0.00 0.00000 -0.55372 0.03910 0.02880 0.83128 0.0046 -0.0970 0.004 -0.298 -0.152 0.300 -0.128 -0.240 78510
-0.00787 0.04294 0.00335 -1.005 0.086 -9.686 0.00 -0.04 -0.02 0.00 0.00000 -0.55172 0.03759 0.02780 0.83271 0.0048 -0.0934 0.001 -0.312 -0.081 0.291 -0.145 -0.317 78610
-0.01670 -0.00807 0.01138 -1.042 0.006 -9.825 -0.00 -0.03 -0.02 0.00 0.00000 -0.55234 0.03806 0.02649 0.83232 0.0020 -0.0927 -0.001 -0.315 -0.056 0.287 -0.154 -0.346 78710
-0.02075 -0.03249 -0.00679 -0.916 -0.023 -9.659 0.01 -0.04 -0.03 0.00 0.00000 -0.55279 0.03926 0.02690 0.83195 0.0013 -0.0952 0.000 -0.290 -0.001 0.281 -0.164 -0.405 78810
-0.02425 -0.02761 -0.00536 -0.797 0.115 -9.612 0.03 -0.06 -0.03 0.00 0.00000 -0.55113 0.04036 0.02678 0.83301 0.0001 -0.0969 0.001 -0.291 0.072 0.276 -0.176 -0.474 78910
-0.00989 -0.00907 -0.01562 -1.045 0.157 -9.557 -0.00 -0.05 0.01 0.00 0.00000 -0.54916 0.04280 0.02573 0.83421 -0.0040 -0.0998 0.001 -0.334 0.176 0.274 -0.191 -0.537 79010
-0.00254 0.02484 -0.03259 -0.978 -0.013 -9.626 -0.03 -0.05 0.00 0.00 0.00000 -0.54816 0.04351 0.02529 0.83485 -0.0054 -0.1005 0.000 -0.344 0.192 0.271 -0.203 -0.563 79110
0.01682 0.00411 -0.00483 -0.858 -0.091 -9.625 -0.03 -0.04 0.05 0.00 0.00000 -0.54685 0.04245 0.02532 0.83576 -0.0041 -0.0988 -0.000 -0.335 0.246 0.267 -0.210 -0.576 79210
0.00991 0.00949 -0.00317 -0.969 0.048 -9.556 -0.02 -0.03 0.05 0.00 0.00000 -0.54770 0.04165 0.02558 0.83523 -0.0029 -0.0977 -0.000 -0.350 0.268 0.265 -0.215 -0.591 79310
0.01279 0.00632 -0.00897 -0.946 0.055 -9.593 -0.07 -0.01 0.09 0.00 0.00000 -0.54751 0.04144 0.02513 0.83539 -0.0034 -0.0969 -0.000 -0.395 0.301 0.266 -0.219 -0.593 79410
-0.00010 0.01682 0.01141 -0.932 -0.077 -9.643 -0.10 -0.00 0.10 0.00 0.00000 -0.54836 0.04137 0.02479 0.83484 -0.0039 -0.0964 -0.001 -0.412 0.300 0.265 -0.222 -0.581 79510
0.00520 -0.00856 0.02205 -0.803 -0.060 -9.669 -0.11 -0.00 0.12 0.00 0.00000 -0.54942 0.04142 0.02437 0.83415 -0.0048 -0.0960 -0.001 -0.430 0.309 0.265 -0.224 -0.569 79610
0.02313 -0.03395 0.01605 -0.957 -0.001 -9.583 -0.12 -0.00 0.12 0.00 0.00000 -0.55080 0.04188 0.02560 0.83319 -0.0034 -0.0981 -0.000 -0.444 0.315 0.265 -0.227 -0.570 79710
0.00042 -0.00341 0.01137 -1.021 -0.003 -9.566 -0.08 -0.00 0.16 0.00 0.00000 -0.55144 0.04086 0.02700 0.83277 -0.0000 -0.0980 -0.000 -0.408 0.358 0.261 -0.226 -0.571 79810
-0.00932 0.01636 -0.00335 -0.983 0.025 -9.685 -0.05 -0.00 0.17 0.00 0.00000 -0.55237 0.04084 0.02727 0.83214 0.0002 -0.0982 -0.002 -0.381 0.343 0.259 -0.221 -0.550 79910
0.01112 -0.03612 -0.01093 -1.070 -0.058 -9.764 -0.04 -0.00 0.05 0.00 0.00000 -0.55205 0.04175 0.02810 0.83228 0.0006 -0.1007 -0.004 -0.361 0.220 0.262 -0.216 -0.527 80010
-0.00902 -0.06225 0.01214 -1.008 -0.074 -9.559 -0.04 -0.00 -0.02 0.00 0.00000 -0.55280 0.04263 0.02956 0.83169 0.0020 -0.1037 -0.000 -0.353 0.177 0.260 -0.213 -0.547 80110
-0.01765 -0.04662 -0.02046 -1.040 -0.027 -9.554 -0.02 -0.00 0.05 0.00 0.00000 -0.55234 0.04436 0.02987 0.83189 0.0006 -0.1070 0.000 -0.337 0.255 0.259 -0.211 -0.573 80210
0.01250 -0.01951 0.00293 -1.140 0.008 -9.502 0.00 -0.00 0.09 0.00 0.00000 -0.55173 0.04592 0.03143 0.83216 0.0016 -0.1113 0.000 -0.318 0.331 0.261 -0.211 -0.606 80310
0.00775 0.03539 0.01584 -1.060 -0.008 -9.650 -0.01 -0.01 0.10 0.00 0.00000 -0.55094 0.04624 0.03228 0.83263 0.0028 -0.1128 -0.001 -0.325 0.332 0.260 -0.212 -0.606 80410
0.01301 -0.02760 0.01662 -1.114 0.022 -9.553 -0.03 -0.01 0.11 0.00 0.00000 -0.55082 0.04648 0.03268 0.83268 0.0032 -0.1136 -0.000 -0.345 0.353 0.261 -0.215 -0.611 80510
0.03677 0.01046 -0.00664 -1.171 -0.008 -9.486 -0.06 -0.00 0.08 0.00 0.00000 -0.55150 0.04652 0.03265 0.83223 0.0030 -0.1137 0.000 -0.378 0.344 0.265 -0.221 -0.623 80610
0.03186 0.05365 -0.01190 -1.089 -0.039 -9.695 -0.08 -0.00 0.05 0.00 0.00000 -0.55201 0.04534 0.03301 0.83194 0.0048 -0.1121 -0.002 -0.397 0.294 0.267 -0.224 -0.609 80710
0.02023 0.02431 0.01747 -1.009 -0.124 -9.627 -0.06 -0.05 -0.00 0.00 0.00000 -0.55438 0.04218 0.03430 0.83048 0.0102 -0.1083 0.000 -0.349 0.250 0.260 -0.229 -0.612 80810
-0.01685 0.04332 -0.00504 -1.067 -0.141 -9.729 -0.04 -0.08 -0.03 0.00 0.00000 -0.55406 0.04180 0.03445 0.83071 0.0109 -0.1078 -0.000 -0.305 0.211 0.252 -0.235 -0.607 80910
-0.02927 0.01989 -0.00615 -1.156 0.006 -9.791 -0.01 -0.09 0.00 0.00 0.00000 -0.55329 0.04184 0.03295 0.83128 0.0085 -0.1062 -0.002 -0.300 0.222 0.250 -0.240 -0.595 81010
-0.01882 -0.02600 0.01169 -1.026 -0.055 -9.683 -0.00 -0.09 0.03 0.00 0.00000 -0.55374 0.04183 0.03282 0.83098 0.0082 -0.1060 -0.000 -0.277 0.259 0.245 -0.244 -0.598 81110
-0.03325 -0.05567 0.02021 -1.065 -0.367 -9.642 0.00 -0.00 0.00 0.00 0.00000 -0.55332 0.04150 0.03226 0.83130 0.0077 -0.1049 -0.003 -0.240 0.263 0.242 -0.231 -0.606 81210
0.04373 0.06646 0.01216 -1.177 0.048 -9.486 0.02 0.05 0.00 0.00 0.00000 -0.55427 0.04088 0.03051 0.83076 0.0054 -0.1019 -0.002 -0.314 0.283 0.258 -0.218 -0.627 81310
-0.03035 -0.01945 0.05578 -1.008 -0.068 -9.653 0.04 0.06 0.07 0.00 0.00000 -0.55628 0.03904 0.03116 0.82948 0.0083 -0.0996 -0.004 -0.283 0.337 0.254 -0.195 -0.633 81410
-0.00403 0.03035 -0.01264 -1.004 -0.055 -9.583 0.04 0.08 0.10 0.00 0.00000 -0.55707 0.03881 0.03052 0.82899 0.0073 -0.0985 -0.004 -0.276 0.377 0.256 -0.177 -0.639 81510
0.03032 0.02447 -0.01117 -0.997 0.065 -9.660 0.01 0.07 0.10 0.00 0.00000 -0.55764 0.03863 0.03003 0.82863 0.0067 -0.0976 -0.004 -0.320 0.362 0.266 -0.166 -0.629 81610
0.02512 0.00565 -0.01492 -0.928 -0.084 -9.629 -0.00 0.07 0.10 0.00 0.00000 -0.55807 0.03750 0.03057 0.82837 0.0088 -0.0964 -0.003 -0.323 0.357 0.269 -0.158 -0.622 81710
0.02075 -0.01690 -0.00772 -0.802 -0.172 -9.715 0.03 -0.01 -0.06 0.00 0.00000 -0.55610 0.03634 0.03364 0.82963 0.0154 -0.0978 -0.001 -0.242 0.212 0.263 -0.157 -0.616 81810
0.01566 -0.04037 0.00572 -0.936 -0.238 -9.775 0.05 -0.06 -0.10 0.00 0.00000 -0.55551 0.03677 0.03633 0.82989 0.0195 -0.1015 -0.001 -0.181 0.151 0.254 -0.161 -0.609 81910
0.05509 -0.06375 -0.04101 -1.162 -0.120 -9.840 0.04 -0.01 -0.08 0.00 0.00000 -0.55488 0.03956 0.03860 0.83009 0.0203 -0.1087 -0.003 -0.219 0.146 0.262 -0.163 -0.598 82010
0.07113 -0.04663 -0.03669 -1.234 -0.217 -9.700 0.04 0.01 -0.07 0.00 0.00000 -0.55308 0.03940 0.04270 0.83109 0.0275 -0.1129 -0.002 -0.220 0.165 0.266 -0.160 -0.602 82110
0.06227 -0.01327 0.00431 -1.062 -0.332 -9.519 -0.07 0.00 -0.06 0.00 0.00000 -0.55104 0.04088 0.04419 0.83230 0.0287 -0.1170 0.003 -0.300 0.203 0.271 -0.171 -0.621 82210
0.16515 0.03527 0.11456 -1.262 -0.696 -9.747 -0.16 0.01 -0.07 0.00 0.00000 -0.55531 0.03827 0.04712 0.82942 0.0359 -0.1160 -0.001 -0.343 0.203 0.272 -0.182 -0.608 82310
0.26637 -0.00963 0.10412 -1.310 -0.506 -9.951 -0.07 -0.01 -0.02 0.00 0.00000 -0.56128 0.02952 0.05833 0.82503 0.0635 -0.1144 -0.005 -0.271 0.195 0.257 -0.178 -0.566 82410
0.16614 -0.07409 0.11281 -1.408 -0.642 -9.631 0.00 -0.02 -0.01 0.00 0.00000 -0.57077 0.02474 0.06981 0.81776 0.0866 -0.1204 -0.001 -0.144 0.224 0.238 -0.172 -0.563 82510
-0.02447 -0.06429 0.15755 -1.465 -0.855 -9.544 0.04 0.01 -0.02 0.00 0.00000 -0.57813 0.02637 0.07566 0.81199 0.0933 -0.1306 -0.003 -0.036 0.232 0.206 -0.151 -0.555 82610
-0.17853 -0.17510 0.20723 -1.247 -0.829 -9.392 0.05 0.00 -0.02 0.00 0.00000 -0.59115 0.03517 0.07449 0.80233 0.0788 -0.1450 -0.001 0.015 0.201 0.175 -0.132 -0.532 82710
-0.24216 -0.01181 0.14409 -1.420 -0.772 -9.649 0.01 -0.01 0.03 0.00 0.00000 -0.59776 0.04715 0.06772 0.79740 0.0523 -0.1568 -0.001 -0.010 0.215 0.161 -0.128 -0.506 82810
-0.08168 -0.08505 -0.01351 -1.698 -0.103 -9.591 0.00 -0.03 0.04 0.00 0.00000 -0.60270 0.05401 0.06311 0.79362 0.0355 -0.1625 0.000 -0.127 0.186 0.174 -0.138 -0.497 82910
0.16891 -0.04309 -0.04340 -1.710 -0.042 -9.753 -0.02 -0.02 -0.06 0.00 0.00000 -0.59886 0.05498 0.06642 0.79619 0.0405 -0.1678 -0.002 -0.218 0.084 0.200 -0.150 -0.491 83010
0.28653 -0.05531 -0.04733 -1.653 -0.641 -9.296 -0.05 -0.02 -0.06 0.00 0.00000 -0.59865 0.05003 0.07717 0.79571 0.0639 -0.1728 0.006 -0.168 0.104 0.205 -0.155 -0.489 83110
0.26696 0.11461 0.01751 -1.288 -0.764 -9.299 0.00 -0.04 -0.06 0.00 0.00000 -0.60027 0.03844 0.08851 0.79394 0.0958 -0.1681 0.000 -0.075 0.116 0.197 -0.156 -0.487 83210
0.14211 0.07899 -0.03984 -1.335 -0.925 -9.191 0.01 -0.05 -0.06 0.00 0.00000 -0.60124 0.02745 0.09380 0.79306 0.1174 -0.1569 0.000 -0.010 0.135 0.182 -0.154 -0.477 83310
-0.05034 -0.04252 0.01742 -1.334 -1.043 -9.350 0.02 -0.03 -0.06 0.00 0.00000 -0.60314 0.02388 0.09329 0.79179 0.1205 -0.1509 -0.000 0.036 0.128 0.161 -0.143 -0.461 83410
-0.17139 -0.09252 0.10519 -1.567 -1.115 -9.453 0.02 -0.01 -0.06 0.00 0.00000 -0.61401 0.03022 0.09101 0.78344 0.1070 -0.1598 -0.002 0.069 0.128 0.136 -0.129 -0.448 83510
-0.18876 -0.04925 0.09235 -1.884 -0.852 -9.370 0.07 0.04 -0.09 0.00 0.00000 -0.61407 0.03797 0.08536 0.78370 0.0884 -0.1651 -0.002 0.090 0.094 0.119 -0.108 -0.455 83610
-0.17326 0.11384 -0.02167 -1.646 -0.548 -9.598 0.10 0.05 -0.11 0.00 0.00000 -0.61454 0.04170 0.07675 0.78402 0.0700 -0.1604 -0.003 0.088 0.032 0.105 -0.085 -0.456 83710
0.07238 0.03224 -0.12606 -1.592 -0.486 -9.965 0.08 0.03 -0.13 0.00 0.00000 -0.60712 0.04141 0.07272 0.79018 0.0654 -0.1543 -0.007 0.026 -0.025 0.132 -0.079 -0.436 83810
0.18452 0.23458 -0.13429 -1.428 -0.656 -9.654 0.08 0.02 -0.14 0.00 0.00000 -0.60014 0.02990 0.07256 0.79603 0.0804 -0.1351 -0.002 0.033 -0.020 0.146 -0.075 -0.439 83910
0.11103 0.01852 -0.10537 -1.278 -0.838 -9.577 0.13 0.03 -0.17 0.00 0.00000 -0.59138 0.02037 0.07643 0.80250 0.0995 -0.1234 -0.001 0.104 -0.004 0.149 -0.066 -0.457 84010
0.00385 -0.02589 -0.06463 -1.158 -1.200 -9.706 0.15 0.03 -0.19 0.00 0.00000 -0.58803 0.01946 0.07968 0.80466 0.1063 -0.1253 -0.004 0.151 0.018 0.151 -0.056 -0.461 84110
-0.08728 -0.04308 -0.01861 -1.153 -1.066 -9.624 0.05 -0.00 -0.15 0.00 0.00000 -0.58437 0.02401 0.07732 0.80743 0.0977 -0.1295 -0.001 0.091 0.038 0.143 -0.056 -0.461 84210
-0.09372 -0.11247 -0.03553 -1.326 -0.801 -9.563 -0.00 -0.02 -0.13 0.00 0.00000 -0.58140 0.03253 0.07607 0.80939 0.0862 -0.1415 0.002 0.033 0.038 0.131 -0.064 -0.466 84310
-0.05052 -0.04567 0.00264 -1.592 -0.516 -9.446 0.10 0.06 -0.16 0.00 0.00000 -0.57940 0.03399 0.07388 0.81097 0.0813 -0.1412 0.001 0.036 -0.006 0.144 -0.056 -0.472 84410
-0.00915 -0.02337 -0.09430 -1.210 -0.762 -9.474 0.15 0.10 -0.15 0.00 0.00000 -0.57936 0.03230 0.07173 0.81126 0.0797 -0.1359 -0.001 0.094 0.048 0.154 -0.041 -0.496 84510
0.03567 0.06205 -0.05388 -1.240 -0.686 -9.748 0.12 0.10 -0.14 0.00 0.00000 -0.57414 0.03214 0.07185 0.81495 0.0810 -0.1353 -0.004 0.053 0.048 0.174 -0.033 -0.501 84610
0.04664 0.00736 0.03087 -1.345 -0.734 -9.744 0.11 0.10 -0.13 0.00 0.00000 -0.57486 0.03062 0.07297 0.81440 0.0845 -0.1341 -0.004 0.040 0.055 0.182 -0.024 -0.500 84710
0.04437 -0.01329 -0.07669 -1.349 -0.811 -9.520 0.00 0.03 -0.06 0.00 0.00000 -0.57136 0.03286 0.07523 0.81657 0.0862 -0.1401 0.002 -0.000 0.141 0.172 -0.034 -0.514 84810
0.04578 -0.05927 -0.06922 -1.373 -0.849 -9.405 -0.04 -0.00 -0.02 0.00 0.00000 -0.56875 0.03501 0.07887 0.81796 0.0902 -0.1475 0.003 -0.014 0.195 0.149 -0.049 -0.519 84910
0.04005 -0.00138 -0.01504 -1.403 -1.011 -9.311 -0.02 0.00 0.03 0.00 0.00000 -0.56810 0.03367 0.08145 0.81822 0.0962 -0.1481 0.002 0.031 0.224 0.126 -0.054 -0.493 85010
-0.01174 0.01133 -0.00464 -1.344 -1.150 -9.444 -0.01 0.01 0.03 0.00 0.00000 -0.56686 0.03259 0.08207 0.81906 0.0987 -0.1469 0.000 0.067 0.235 0.104 -0.054 -0.470 85110
-0.01911 0.00869 -0.00099 -1.480 -1.032 -9.576 0.00 0.04 0.03 0.00 0.00000 -0.56683 0.03225 0.08147 0.81916 0.0981 -0.1457 -0.002 0.085 0.198 0.091 -0.048 -0.444 85210
-0.02450 0.01995 -0.01799 -1.417 -0.914 -9.449 0.02 0.06 0.03 0.00 0.00000 -0.56793 0.03074 0.07919 0.81867 0.0958 -0.1407 -0.001 0.095 0.176 0.084 -0.041 -0.431 85310
-0.02491 -0.01289 -0.03417 -1.323 -0.846 -9.483 -0.01 -0.01 0.06 0.00 0.00000 -0.56693 0.03303 0.07882 0.81931 0.0927 -0.1440 0.002 0.090 0.182 0.070 -0.051 -0.423 85410
-0.02160 0.03414 -0.03314 -1.391 -0.917 -9.578 -0.04 -0.06 0.06 0.00 0.00000 -0.56474 0.03429 0.07811 0.82084 0.0905 -0.1450 0.002 0.096 0.172 0.050 -0.065 -0.410 85510
-0.01633 -0.01240 -0.04025 -1.398 -0.871 -9.534 -0.00 -0.02 -0.00 0.00 0.00000 -0.56170 0.03346 0.07738 0.82303 0.0908 -0.1425 0.000 0.114 0.118 0.038 -0.068 -0.408 85610
0.00351 -0.03848 -0.01082 -1.492 -0.991 -9.550 0.01 0.00 -0.02 0.00 0.00000 -0.56128 0.03362 0.07770 0.82327 0.0912 -0.1430 -0.001 0.137 0.102 0.033 -0.066 -0.405 85710
0.00452 0.00544 -0.02966 -1.485 -0.897 -9.414 0.01 -0.00 0.04 0.00 0.00000 -0.56016 0.03339 0.07791 0.82403 0.0920 -0.1428 0.000 0.144 0.159 0.026 -0.066 -0.411 85810
0.01462 0.05350 -0.03345 -1.348 -0.756 -9.350 0.01 -0.01 0.07 0.00 0.00000 -0.55815 0.03198 0.07792 0.82544 0.0940 -0.1402 0.003 0.149 0.202 0.018 -0.069 -0.427 85910
0.00020 0.01082 -0.00499 -1.335 -0.838 -9.476 0.10 -0.01 0.09 0.00 0.00000 -0.55690 0.02934 0.07891 0.82629 0.0988 -0.1368 -0.001 0.236 0.211 0.010 -0.063 -0.428 86010
-0.02238 -0.00868 -0.00700 -1.317 -0.947 -9.515 0.15 -0.00 0.10 0.00 0.00000 -0.55621 0.02875 0.07881 0.82679 0.0994 -0.1356 -0.002 0.307 0.213 0.003 -0.052 -0.416 86110
-0.01706 0.02742 -0.02468 -1.252 -0.854 -9.413 0.14 -0.01 0.11 0.00 0.00000 -0.55528 0.02839 0.07701 0.82759 0.0969 -0.1329 -0.000 0.305 0.207 -0.000 -0.046 -0.405 86210
0.00069 0.06451 0.00227 -1.132 -0.781 -9.598 0.12 -0.02 0.11 0.00 0.00000 -0.55346 0.02778 0.07579 0.82894 0.0958 -0.1303 -0.001 0.289 0.187 -0.003 -0.044 -0.394 86310
0.02747 -0.02403 0.04011 -1.168 -0.893 -9.548 0.12 0.02 0.12 0.00 0.00000 -0.55317 0.02673 0.07487 0.82926 0.0955 -0.1275 -0.002 0.277 0.199 0.001 -0.036 -0.387 86410
0.03305 0.00142 0.02448 -1.333 -1.036 -9.517 0.11 0.07 0.11 0.00 0.00000 -0.56058 0.02545 0.07593 0.82421 0.0975 -0.1274 -0.004 0.281 0.204 -0.003 -0.017 -0.374 86510
0.02307 0.02944 0.04817 -1.189 -1.091 -9.497 0.09 0.04 0.20 0.00 0.00000 -0.56180 0.02479 0.07673 0.82333 0.0994 -0.1273 -0.002 0.291 0.256 -0.012 -0.006 -0.351 86610
-0.00079 -0.00036 0.08992 -1.209 -1.095 -9.465 0.08 0.02 0.25 0.00 0.00000 -0.56438 0.02533 0.07753 0.82147 0.0997 -0.1295 -0.000 0.304 0.276 -0.026 -0.001 -0.324 86710
-0.03583 0.00765 0.08386 -1.276 -1.066 -9.438 0.04 0.00 0.23 0.00 0.00000 -0.56702 0.02676 0.07612 0.81974 0.0954 -0.1305 0.000 0.282 0.242 -0.038 -0.000 -0.299 86810
-0.02853 0.01616 0.06248 -1.326 -0.853 -9.479 0.02 0.00 0.23 0.00 0.00000 -0.56969 0.02774 0.07400 0.81804 0.0903 -0.1300 0.000 0.247 0.201 -0.044 -0.004 -0.280 86910
0.02101 -0.02778 0.08974 -1.307 -0.673 -9.364 0.01 0.00 0.23 0.00 0.00000 -0.57084 0.02846 0.07336 0.81727 0.0882 -0.1306 0.004 0.198 0.196 -0.035 -0.015 -0.281 87010
0.03104 0.06571 0.04391 -1.275 -0.841 -9.553 -0.00 0.00 0.23 0.00 0.00000 -0.57550 0.02750 0.07413 0.81396 0.0899 -0.1304 -0.000 0.200 0.202 -0.038 -0.021 -0.280 87110
0.04205 -0.01224 0.00971 -1.219 -0.836 -9.359 -0.00 0.13 -0.06 0.00 0.00000 -0.57566 0.02284 0.07161 0.81422 0.0910 -0.1199 -0.003 0.160 -0.014 -0.044 0.004 -0.287 87210
0.06936 -0.02973 0.00791 -1.227 -0.859 -9.452 0.00 0.21 -0.14 0.00 0.00000 -0.57736 0.02157 0.07364 0.81286 0.0956 -0.1204 -0.003 0.148 -0.105 -0.051 0.043 -0.295 87310
0.11438 0.05561 0.07027 -1.360 -0.958 -9.371 -0.01 0.16 -0.06 0.00 0.00000 -0.57928 0.01950 0.07735 0.81121 0.1038 -0.1215 0.001 0.158 -0.039 -0.045 0.059 -0.306 87410
0.09343 0.11730 -0.00380 -1.180 -1.136 -9.542 -0.03 0.12 -0.04 0.00 0.00000 -0.58181 0.01380 0.07952 0.80930 0.1136 -0.1151 -0.001 0.183 0.021 -0.052 0.065 -0.323 87510
0.05229 0.14916 -0.01938 -1.028 -1.144 -9.684 -0.03 0.04 0.06 0.00 0.00000 -0.58118 0.00713 0.07997 0.80980 0.1222 -0.1046 -0.000 0.225 0.092 -0.062 0.058 -0.315 87610
-0.00061 -0.02034 0.01478 -0.778 -1.194 -9.510 -0.03 -0.01 0.10 0.00 0.00000 -0.57968 0.00401 0.07932 0.81095 0.1249 -0.0986 0.002 0.265 0.132 -0.075 0.043 -0.307 87710
-0.07927 -0.07667 0.02622 -0.926 -1.088 -9.370 0.04 -0.01 0.11 0.00 0.00000 -0.57981 0.00600 0.07995 0.81079 0.1236 -0.1026 0.001 0.345 0.106 -0.097 0.041 -0.288 87810
-0.09877 -0.04806 0.06887 -0.920 -1.095 -9.430 0.10 -0.00 0.12 0.00 0.00000 -0.58116 0.01054 0.07915 0.80986 0.1169 -0.1092 0.000 0.413 0.098 -0.113 0.044 -0.272 87910
-0.10197 -0.03104 0.11607 -1.156 -0.989 -9.441 0.09 -0.04 0.10 0.00 0.00000 -0.58449 0.01709 0.07741 0.80751 0.1059 -0.1183 0.002 0.419 0.069 -0.120 0.035 -0.265 88010
-0.06269 0.00698 0.06591 -1.146 -0.898 -9.508 0.08 -0.09 0.07 0.00 0.00000 -0.58821 0.02065 0.07446 0.80500 0.0964 -0.1211 0.003 0.398 0.033 -0.117 0.015 -0.268 88110
0.01217 0.08776 0.04213 -1.106 -1.019 -9.647 0.02 -0.09 0.10 0.00 0.00000 -0.58938 0.02115 0.07155 0.80440 0.0909 -0.1186 0.001 0.341 0.059 -0.111 -0.006 -0.263 88210
0.06088 0.02403 0.03850 -0.983 -0.914 -9.551 -0.02 -0.09 0.10 0.00 0.00000 -0.59061 0.01803 0.07057 0.80365 0.0928 -0.1125 0.003 0.279 0.064 -0.104 -0.028 -0.267 88310
0.08453 0.02548 0.05042 -0.991 -0.948 -9.617 -0.06 -0.10 -0.01 0.00 0.00000 -0.59119 0.01612 0.07281 0.80307 0.0986 -0.1122 0.001 0.227 -0.022 -0.103 -0.046 -0.273 88410
0.05587 -0.00063 0.05365 -1.064 -0.983 -9.586 -0.08 -0.10 -0.06 0.00 0.00000 -0.59377 0.01409 0.07491 0.80101 0.1041 -0.1117 0.002 0.202 -0.055 -0.104 -0.061 -0.283 88510
-0.00928 -0.05812 0.02176 -1.097 -1.030 -9.492 -0.03 -0.03 -0.02 0.00 0.00000 -0.59642 0.01250 0.07543 0.79901 0.1064 -0.1101 0.000 0.243 0.000 -0.115 -0.057 -0.302 88610
-0.04720 -0.01700 0.02523 -1.149 -0.999 -9.441 0.00 0.03 -0.00 0.00 0.00000 -0.59889 0.01285 0.07445 0.79725 0.1041 -0.1099 -0.001 0.289 0.048 -0.130 -0.037 -0.325 88710
-0.05900 -0.02136 0.01374 -1.135 -0.994 -9.575 0.03 0.06 -0.01 0.00 0.00000 -0.60055 0.01515 0.07355 0.79604 0.0997 -0.1127 -0.004 0.327 0.045 -0.147 -0.013 -0.336 88810
-0.02711 -0.03404 0.03548 -1.196 -0.803 -9.515 0.05 0.07 -0.01 0.00 0.00000 -0.60245 0.01706 0.07271 0.79464 0.0957 -0.1149 -0.001 0.342 0.034 -0.157 0.006 -0.349 88910
0.00262 -0.03774 -0.00282 -1.186 -0.840 -9.474 0.04 0.05 0.00 0.00 0.00000 -0.60434 0.01867 0.07310 0.79314 0.0941 -0.1182 -0.000 0.357 0.065 -0.164 0.017 -0.369 89010
0.00304 0.02520 0.01756 -1.161 -0.940 -9.369 0.03 0.03 0.01 0.00 0.00000 -0.60524 0.01911 0.07362 0.79239 0.0943 -0.1196 0.000 0.371 0.106 -0.170 0.021 -0.386 89110
-0.02613 0.03592 -0.00229 -1.090 -0.838 -9.461 0.02 0.01 0.06 0.00 0.00000 -0.60458 0.01867 0.07224 0.79303 0.0927 -0.1172 0.001 0.370 0.145 -0.177 0.020 -0.397 89210
-0.05106 -0.00192 0.02949 -1.130 -0.894 -9.564 0.01 0.01 0.08 0.00 0.00000 -0.60491 0.01957 0.06999 0.79296 0.0880 -0.1159 -0.000 0.375 0.165 -0.184 0.020 -0.397 89310
-0.04407 -0.02608 0.03768 -1.181 -0.830 -9.581 0.02 0.01 0.00 0.00 0.00000 -0.60583 0.02160 0.06854 0.79233 0.0831 -0.1175 -0.001 0.377 0.099 -0.191 0.023 -0.398 89410
-0.02485 -0.04756 0.02065 -1.257 -0.767 -9.525 0.04 0.02 -0.02 0.00 0.00000 -0.60630 0.02382 0.06834 0.79192 0.0800 -0.1209 0.000 0.384 0.066 -0.196 0.026 -0.408 89510
0.01698 -0.00976 0.02654 -1.227 -0.705 -9.542 0.00 0.00 0.06 0.00 0.00000 -0.60686 0.02611 0.06901 0.79137 0.0782 -0.1254 0.001 0.357 0.138 -0.194 0.021 -0.415 89610
0.04270 -0.01663 -0.00631 -1.242 -0.760 -9.466 -0.02 -0.00 0.11 0.00 0.00000 -0.60833 0.02658 0.07072 0.79007 0.0801 -0.1284 0.002 0.339 0.211 -0.194 0.010 -0.430 89710
0.00655 -0.00927 -0.03240 -1.262 -0.807 -9.369 -0.03 0.02 0.08 0.00 0.00000 -0.60758 0.02583 0.07107 0.79064 0.0817 -0.1275 0.000 0.332 0.187 -0.202 0.011 -0.425 89810
-0.01639 0.00929 -0.04789 -1.237 -0.772 -9.337 -0.03 0.04 0.08 0.00 0.00000 -0.60549 0.02531 0.06999 0.79235 0.0809 -0.1252 0.000 0.329 0.194 -0.209 0.015 -0.425 89910
-0.07006 0.09100 -0.05594 -1.212 -0.922 -9.460 -0.00 -0.01 0.07 0.00 0.00000 -0.60328 0.02489 0.06860 0.79417 0.0796 -0.1226 0.000 0.391 0.178 -0.226 0.015 -0.416 90010
-0.12192 0.00744 -0.09943 -0.889 -0.745 -9.297 0.01 -0.07 0.08 0.00 0.00000 -0.59918 0.02522 0.06418 0.79763 0.0727 -0.1174 0.000 0.424 0.185 -0.243 0.004 -0.425 90110
-0.17943 0.07543 -0.04769 -0.949 -0.389 -9.489 0.00 -0.19 0.11 0.00 0.00000 -0.59392 0.02866 0.05741 0.80195 0.0584 -0.1144 0.008 0.442 0.169 -0.290 -0.014 -0.428 90210
-0.09487 -0.00721 0.00061 -1.127 -0.405 -9.708 -0.01 -0.28 0.15 0.00 0.00000 -0.59060 0.03433 0.05288 0.80449 0.0448 -0.1179 0.005 0.467 0.188 -0.329 -0.046 -0.425 90310
0.03554 0.00243 -0.05083 -1.191 -0.380 -9.600 -0.00 -0.19 0.08 0.00 0.00000 -0.58775 0.03345 0.04986 0.80680 0.0414 -0.1128 0.003 0.446 0.148 -0.337 -0.062 -0.431 90410
0.14270 0.08676 -0.04259 -0.867 -0.576 -9.488 -0.00 -0.12 0.05 0.00 0.00000 -0.58651 0.02581 0.05063 0.80794 0.0518 -0.1012 0.002 0.456 0.160 -0.337 -0.065 -0.447 90510
0.13539 0.04171 -0.01852 -0.827 -0.683 -9.539 0.11 -0.08 0.10 0.00 0.00000 -0.58429 0.01634 0.05604 0.80943 0.0720 -0.0920 -0.001 0.573 0.220 -0.339 -0.052 -0.465 90610
0.05906 0.00809 0.03743 -0.886 -0.740 -9.486 0.20 -0.05 0.12 0.00 0.00000 -0.58573 0.01064 0.05984 0.80822 0.0846 -0.0874 -0.003 0.679 0.241 -0.341 -0.031 -0.474 90710
0.00506 -0.03508 0.01514 -0.952 -0.679 -9.503 0.13 0.00 0.17 0.00 0.00000 -0.58693 0.01177 0.05899 0.80739 0.0818 -0.0883 -0.003 0.612 0.287 -0.328 -0.013 -0.474 90810
0.05704 -0.00772 -0.00833 -0.908 -0.590 -9.385 0.07 0.03 0.19 0.00 0.00000 -0.58746 0.01264 0.05900 0.80699 0.0807 -0.0898 -0.002 0.520 0.315 -0.307 0.000 -0.478 90910
0.11924 0.06623 -0.00137 -1.017 -0.798 -9.426 0.07 0.04 0.28 0.00 0.00000 -0.58863 0.00962 0.06250 0.80592 0.0898 -0.0892 -0.003 0.533 0.355 -0.298 0.017 -0.449 91010
0.10388 0.10991 -0.01166 -0.881 -0.918 -9.465 0.08 0.03 0.33 0.00 0.00000 -0.58914 0.00216 0.06489 0.80541 0.1024 -0.0800 -0.003 0.573 0.374 -0.304 0.035 -0.412 91110
-0.01216 0.03155 0.02210 -0.866 -1.122 -9.641 0.05 0.06 0.24 0.00 0.00000 -0.58961 -0.00094 0.06469 0.80508 0.1057 -0.0748 -0.005 0.571 0.316 -0.317 0.059 -0.382 91210
-0.15073 0.03742 -0.02291 -0.598 -1.103 -9.647 0.02 0.08 0.21 0.00 0.00000 -0.59048 0.00002 0.05887 0.80489 0.0951 -0.0696 -0.005 0.551 0.262 -0.332 0.082 -0.354 91310
-0.13594 -0.06668 0.02807 -0.584 -0.802 -9.610 0.01 0.00 0.20 0.00 0.00000 -0.58835 0.00720 0.05517 0.80668 0.0808 -0.0766 -0.001 0.539 0.197 -0.341 0.085 -0.335 91410
-0.01431 -0.06455 0.04699 -0.728 -0.617 -9.604 0.02 -0.06 0.19 0.00 0.00000 -0.59021 0.01331 0.05557 0.80521 0.0741 -0.0871 0.002 0.525 0.165 -0.339 0.070 -0.330 91510
0.09690 -0.00062 -0.00265 -0.891 -0.751 -9.468 0.00 -0.08 0.19 0.00 0.00000 -0.59059 0.01364 0.05882 0.80470 0.0789 -0.0915 0.004 0.530 0.192 -0.338 0.052 -0.341 91610
0.05864 0.03817 -0.03363 -0.769 -0.892 -9.274 -0.01 -0.10 0.20 0.00 0.00000 -0.59002 0.01021 0.06131 0.80498 0.0871 -0.0889 0.003 0.547 0.186 -0.353 0.040 -0.328 91710
-0.02113 0.05486 0.01192 -0.823 -0.945 -9.427 -0.01 -0.04 0.16 0.00 0.00000 -0.58951 0.00745 0.05962 0.80551 0.0876 -0.0824 0.000 0.548 0.148 -0.367 0.043 -0.312 91810
-0.04689 0.02514 0.01651 -0.806 -0.984 -9.566 -0.01 0.00 0.14 0.00 0.00000 -0.59159 0.00656 0.05636 0.80423 0.0832 -0.0773 -0.002 0.541 0.129 -0.376 0.053 -0.302 91910
-0.04204 0.02834 -0.00085 -0.872 -0.751 -9.536 -0.03 0.04 0.19 0.00 0.00000 -0.59225 0.00706 0.05318 0.80395 0.0774 -0.0744 -0.000 0.505 0.156 -0.379 0.064 -0.303 92010
-0.01530 0.03738 -0.06956 -0.722 -0.627 -9.469 -0.04 0.05 0.22 0.00 0.00000 -0.59136 0.00670 0.05068 0.80477 0.0739 -0.0707 0.001 0.485 0.189 -0.385 0.076 -0.313 92110
0.01347 0.05276 -0.09472 -0.722 -0.756 -9.488 -0.01 0.05 0.28 0.00 0.00000 -0.58748 0.00512 0.05061 0.80763 0.0759 -0.0677 -0.001 0.528 0.262 -0.387 0.086 -0.326 92210
0.01209 0.07083 -0.10193 -0.532 -0.872 -9.473 0.01 0.05 0.31 0.00 0.00000 -0.58303 0.00092 0.04959 0.81092 0.0795 -0.0593 -0.002 0.572 0.273 -0.386 0.098 -0.309 92310
0.01577 0.09325 -0.06230 -0.449 -0.966 -9.575 -0.00 0.03 0.36 0.00 0.00000 -0.57877 -0.00264 0.04812 0.81405 0.0816 -0.0514 -0.002 0.573 0.299 -0.385 0.105 -0.281 92410
-0.01360 0.01509 -0.04767 -0.446 -0.811 -9.494 -0.03 0.01 0.40 0.00 0.00000 -0.57568 -0.00428 0.04696 0.81630 0.0817 -0.0470 -0.000 0.557 0.292 -0.393 0.109 -0.254 92510
-0.08148 -0.02695 -0.03963 -0.519 -0.775 -9.559 -0.04 -0.03 0.35 0.00 0.00000 -0.57230 -0.00157 0.04598 0.81874 0.0772 -0.0500 0.000 0.570 0.241 -0.414 0.110 -0.238 92610
-0.10628 -0.01626 -0.04110 -0.621 -0.782 -9.466 -0.04 -0.04 0.35 0.00 0.00000 -0.56974 0.00254 0.04276 0.82070 0.0674 -0.0529 0.001 0.586 0.235 -0.434 0.108 -0.227 92710
-0.05824 0.02234 -0.10153 -0.417 -0.592 -9.379 -0.04 -0.01 0.38 0.00 0.00000 -0.56456 0.00356 0.03855 0.82448 0.0596 -0.0494 0.004 -0.112 -0.022 0.124 -0.077 -0.035 92810
-0.00315 0.04850 -0.04323 -0.399 -0.559 -9.364 -0.04 -0.00 0.41 0.00 0.00000 -0.55957 0.00267 0.03707 0.82794 0.0584 -0.0459 -0.006 -0.131 0.044 0.177 -0.098 -0.001 92910
-0.00905 0.05114 -0.00160 -0.401 -0.698 -9.412 -0.05 -0.02 0.46 0.00 0.00000 -0.55847 0.00110 0.03637 0.82872 0.0591 -0.0424 0.007 -0.101 0.125 0.170 -0.101 0.003 93010
-0.06332 0.05844 0.02955 -0.187 -0.639 -9.462 -0.06 -0.05 0.47 0.00 0.00000 -0.55859 -0.00014 0.03339 0.82877 0.0555 -0.0370 0.006 -0.091 0.154 0.155 -0.107 -0.004 93110
-0.13342 0.02511 0.12995 -0.249 -0.460 -9.617 0.00 -0.00 0.48 0.00 0.00000 -0.56034 -0.00127 0.02759 0.82780 0.0471 -0.0288 0.000 -0.074 0.174 0.154 -0.102 -0.019 93210
-0.21241 0.02422 0.14120 -0.256 -0.360 -9.678 0.05 0.04 0.47 0.00 0.00000 -0.56694 0.00065 0.01860 0.82354 0.0299 -0.0221 -0.002 -0.057 0.166 0.151 -0.084 -0.029 93310
-0.21765 -0.06525 0.05991 -0.386 -0.284 -9.631 -0.04 0.00 0.38 0.00 0.00000 -0.57262 0.01016 0.00929 0.81969 0.0036 -0.0273 0.001 -0.144 0.084 0.154 -0.084 -0.039 93410
-0.09774 -0.15422 -0.00393 -0.538 0.097 -9.618 -0.10 -0.03 0.34 0.00 0.00000 -0.57180 0.02244 0.00685 0.82005 -0.0144 -0.0446 0.004 -0.279 0.026 0.167 -0.099 -0.042 93510
0.07141 -0.08532 -0.02714 -0.321 0.140 -9.515 -0.04 -0.02 0.29 0.00 0.00000 -0.57015 0.02565 0.01107 0.82105 -0.0110 -0.0547 0.005 -0.263 -0.034 0.174 -0.103 -0.038 93610
0.16332 0.01190 -0.00042 -0.369 0.150 -9.479 0.02 -0.01 0.27 0.00 0.00000 -0.57022 0.02208 0.01798 0.82099 0.0043 -0.0567 0.005 -0.216 -0.068 0.179 -0.102 -0.033 93710
0.15996 0.01115 0.00984 -0.468 0.119 -9.444 0.02 -0.04 0.30 0.00 0.00000 -0.56989 0.01767 0.02508 0.82114 0.0210 -0.0576 0.006 -0.188 -0.060 0.179 -0.104 -0.023 93810
0.05770 -0.00521 -0.04923 -0.492 -0.138 -9.434 0.01 -0.05 0.30 0.00 0.00000 -0.57019 0.01516 0.02937 0.82084 0.0309 -0.0584 0.007 -0.123 -0.065 0.159 -0.100 -0.013 93910
-0.06240 0.01514 -0.05453 -0.485 -0.076 -9.507 0.04 0.00 0.26 0.00 0.00000 -0.56861 0.01443 0.02825 0.82199 0.0300 -0.0558 0.003 -0.101 -0.091 0.140 -0.084 -0.015 94010
-0.13129 -0.03264 -0.06920 -0.801 -0.153 -9.362 0.04 0.05 0.24 0.00 0.00000 -0.56626 0.01793 0.02393 0.82367 0.0191 -0.0566 0.004 -0.080 -0.130 0.129 -0.061 -0.000 94110
-0.16479 0.04175 -0.00110 -0.691 -0.296 -9.630 0.02 0.04 0.08 0.00 0.00000 -0.56541 0.02289 0.01823 0.82428 0.0041 -0.0583 0.000 -0.071 -0.236 0.126 -0.048 -0.014 94210
-0.11265 0.08688 0.07040 -0.380 -0.064 -9.586 0.01 0.01 0.03 0.00 0.00000 -0.56660 0.02394 0.01029 0.82357 -0.0101 -0.0511 0.003 -0.120 -0.314 0.138 -0.048 -0.017 94310
-0.05896 0.03364 0.21162 -0.373 0.107 -9.561 -0.06 0.02 0.07 0.00 0.00000 -0.57198 0.02519 0.00430 0.81986 -0.0217 -0.0462 0.004 -0.259 -0.298 0.175 -0.062 -0.014 94410
-0.05617 0.03413 0.18808 -0.506 0.384 -9.483 -0.11 0.04 0.09 0.00 0.00000 -0.57812 0.02507 -0.00116 0.81555 -0.0309 -0.0395 0.005 -0.401 -0.279 0.211 -0.075 -0.010 94510
-0.01665 0.01980 0.14802 -0.483 0.465 -9.675 0.01 0.06 0.12 0.00 0.00000 -0.58604 0.02206 -0.00250 0.80997 -0.0299 -0.0328 -0.000 -0.315 -0.220 0.205 -0.060 -0.021 94610
0.05058 -0.00091 0.12282 -0.511 0.511 -9.817 0.12 0.07 0.15 0.00 0.00000 -0.59272 0.01929 -0.00087 0.80517 -0.0243 -0.0300 -0.004 -0.192 -0.162 0.184 -0.033 -0.035 94710
0.09429 -0.03739 0.07527 -0.432 0.421 -9.651 0.07 0.03 0.06 0.00 0.00000 -0.59569 0.02049 0.00261 0.80294 -0.0202 -0.0360 0.001 -0.208 -0.228 0.192 -0.030 -0.049 94810
0.10442 0.02453 0.00034 -0.320 0.158 -9.516 0.00 -0.00 0.03 0.00 0.00000 -0.59710 0.01946 0.00642 0.80189 -0.0129 -0.0388 0.006 -0.233 -0.289 0.203 -0.039 -0.047 94910
0.05612 0.07655 0.01348 -0.152 -0.078 -9.527 -0.02 -0.00 0.01 0.00 0.00000 -0.59741 0.01386 0.00677 0.80178 -0.0056 -0.0303 0.006 -0.218 -0.321 0.203 -0.044 -0.045 95010
-0.02360 0.03995 -0.01086 -0.121 -0.109 -9.704 -0.02 0.01 -0.01 0.00 0.00000 -0.59768 0.01190 0.00621 0.80162 -0.0042 -0.0265 0.003 -0.203 -0.335 0.189 -0.042 -0.055 95110
-0.06180 -0.00519 0.00371 -0.250 0.358 -9.693 0.00 0.00 0.03 0.00 0.00000 -0.59661 0.01234 0.00432 0.80242 -0.0077 -0.0249 0.002 -0.236 -0.276 0.181 -0.040 -0.065 95210
-0.04332 -0.08063 -0.01911 -0.370 0.316 -9.646 0.03 0.00 0.09 0.00 0.00000 -0.59623 0.01558 0.00356 0.80264 -0.0128 -0.0292 0.003 -0.212 -0.214 0.179 -0.040 -0.074 95310
-0.01858 -0.02110 -0.08708 -0.508 0.069 -9.609 0.08 -0.02 0.03 0.00 0.00000 -0.59368 0.01719 0.00447 0.80450 -0.0132 -0.0329 0.003 -0.113 -0.250 0.165 -0.038 -0.085 95410
0.01683 -0.03336 -0.10497 -0.397 -0.146 -9.618 0.10 -0.05 0.01 0.00 0.00000 -0.58948 0.01850 0.00764 0.80753 -0.0094 -0.0389 0.004 -0.015 -0.266 0.143 -0.037 -0.095 95510
0.03058 -0.03017 -0.04892 -0.264 -0.034 -9.579 0.13 -0.06 0.03 0.00 0.00000 -0.58504 0.01823 0.01030 0.81073 -0.0046 -0.0416 0.005 0.018 -0.255 0.128 -0.036 -0.099 95610
0.06057 -0.05285 0.02055 -0.546 -0.132 -9.414 0.16 -0.05 0.04 0.00 0.00000 -0.58418 0.01889 0.01482 0.81126 0.0019 -0.0480 0.007 0.049 -0.263 0.129 -0.036 -0.084 95710
0.02499 0.03770 -0.02111 -0.432 -0.151 -9.474 0.05 -0.02 0.02 0.00 0.00000 -0.58578 0.01814 0.01413 0.81014 0.0016 -0.0459 0.006 -0.029 -0.277 0.128 -0.037 -0.082 95810
0.03604 -0.00943 -0.04324 -0.472 -0.008 -9.577 -0.02 -0.01 -0.00 0.00 0.00000 -0.58363 0.01757 0.01319 0.81171 0.0008 -0.0439 0.005 -0.134 -0.291 0.129 -0.042 -0.091 95910
0.03370 0.02228 0.00854 -0.414 -0.130 -9.536 -0.00 -0.02 -0.00 0.00 0.00000 -0.58480 0.01513 0.01468 0.81090 0.0061 -0.0417 0.006 -0.107 -0.286 0.123 -0.045 -0.096 96010
-0.01719 -0.03071 0.00654 -0.333 -0.003 -9.602 0.04 -0.06 0.00 0.00 0.00000 -0.58468 0.01544 0.01685 0.81093 0.0092 -0.0447 0.005 -0.057 -0.275 0.106 -0.047 -0.105 96110
-0.03886 -0.01096 0.01794 -0.369 -0.046 -9.511 0.03 -0.08 0.05 0.00 0.00000 -0.58445 0.01725 0.01567 0.81109 0.0052 -0.0463 0.007 -0.043 -0.239 0.101 -0.056 -0.105 96210
-0.00111 -0.00341 0.02269 -0.450 0.041 -9.661 0.01 -0.10 0.06 0.00 0.00000 -0.58746 0.01930 0.01527 0.80887 0.0020 -0.0492 0.004 -0.077 -0.194 0.104 -0.071 -0.123 96310
0.04680 -0.02805 -0.00031 -0.433 0.115 -9.685 -0.01 -0.08 0.08 0.00 0.00000 -0.58607 0.01964 0.01570 0.80986 0.0024 -0.0502 0.003 -0.131 -0.146 0.110 -0.085 -0.144 96410
0.09199 -0.07051 -0.01576 -0.586 0.027 -9.691 -0.03 -0.06 0.09 0.00 0.00000 -0.58734 0.02011 0.01927 0.80885 0.0075 -0.0552 0.002 -0.159 -0.116 0.117 -0.094 -0.167 96510
0.14999 -0.09611 -0.06979 -0.533 -0.083 -9.536 -0.01 -0.05 0.10 0.00 0.00000 -0.58711 0.01931 0.02671 0.80882 0.0205 -0.0626 0.004 -0.120 -0.097 0.114 -0.095 -0.179 96610
0.16438 -0.05190 -0.07483 -0.590 -0.318 -9.675 0.02 -0.04 0.14 0.00 0.00000 -0.58573 0.01673 0.03590 0.80953 0.0386 -0.0692 0.001 -0.041 -0.011 0.104 -0.094 -0.213 96710
0.17687 -0.05555 -0.02028 -0.413 -0.368 -9.704 0.02 -0.06 0.21 0.00 0.00000 -0.58544 0.01382 0.04412 0.80939 0.0554 -0.0741 0.001 -0.008 0.098 0.103 -0.100 -0.246 96810
0.20313 -0.06188 0.01715 -0.659 -0.959 -9.371 0.00 -0.05 0.27 0.00 0.00000 -0.58548 0.01030 0.05292 0.80888 0.0738 -0.0787 0.000 0.060 0.180 0.099 -0.103 -0.230 96910
0.17210 -0.01347 0.02280 -0.896 -1.288 -9.458 -0.02 -0.01 0.24 0.00 0.00000 -0.59335 0.00549 0.06161 0.80256 0.0928 -0.0820 -0.001 0.076 0.237 0.088 -0.097 -0.228 97010
0.06102 -0.02834 0.02614 -0.853 -1.105 -9.363 -0.03 0.01 0.20 0.00 0.00000 -0.59394 0.00119 0.06601 0.80178 0.1049 -0.0804 -0.000 0.082 0.183 0.068 -0.084 -0.219 97110
-0.09542 -0.14237 0.09579 -0.825 -1.124 -9.445 -0.07 0.00 0.12 0.00 0.00000 -0.60141 0.00688 0.06801 0.79600 0.1006 -0.0929 -0.000 0.062 0.098 0.045 -0.074 -0.211 97210
-0.21239 -0.19293 0.08464 -1.189 -0.576 -9.224 -0.11 -0.00 0.06 0.00 0.00000 -0.60412 0.01981 0.06597 0.79390 0.0814 -0.1114 -0.003 -0.002 -0.000 0.020 -0.068 -0.219 97310
-0.27258 -0.14655 -0.00743 -1.580 -0.264 -9.441 -0.07 0.00 0.19 0.00 0.00000 -0.60788 0.03456 0.06154 0.79087 0.0558 -0.1298 0.003 -0.012 0.044 0.007 -0.063 -0.221 97410
-0.22994 -0.11948 -0.09621 -1.578 -0.338 -9.356 -0.05 0.00 0.29 0.00 0.00000 -0.60266 0.04823 0.05713 0.79448 0.0330 -0.1460 0.005 0.022 0.133 -0.009 -0.059 -0.221 97510
-0.24212 -0.08170 -0.13154 -1.426 -0.406 -9.029 -0.04 -0.02 0.31 0.00 0.00000 -0.59818 0.05830 0.05116 0.79759 0.0120 -0.1548 0.002 0.030 0.213 -0.015 -0.071 -0.243 97610
-0.28962 0.09036 -0.09390 -1.197 -0.158 -9.114 -0.05 -0.08 0.30 0.00 0.00000 -0.59046 0.06485 0.04049 0.80343 -0.0116 -0.1526 0.002 0.010 0.214 -0.036 -0.086 -0.259 97710
-0.24857 0.07054 -0.04189 -1.965 0.643 -9.640 -0.00 -0.12 0.14 0.00 0.00000 -0.58735 0.06973 0.02878 0.80580 -0.0359 -0.1467 -0.000 -0.056 0.086 -0.048 -0.098 -0.258 97810
-0.01607 0.02800 -0.10589 -1.179 0.389 -9.507 0.03 -0.16 0.07 0.00 0.00000 -0.57928 0.07104 0.02353 0.81168 -0.0445 -0.1430 0.005 0.013 0.006 -0.058 -0.112 -0.268 97910
0.16801 0.10250 0.02726 -1.206 0.307 -9.443 -0.03 -0.12 0.13 0.00 0.00000 -0.57903 0.06493 0.02299 0.81238 -0.0381 -0.1325 0.005 -0.061 0.039 -0.037 -0.129 -0.276 98010
0.25819 0.11207 -0.03400 -1.168 0.115 -9.478 -0.10 -0.06 0.15 0.00 0.00000 -0.57554 0.05457 0.02659 0.81551 -0.0195 -0.1199 0.004 -0.125 0.076 -0.025 -0.139 -0.292 98110
0.18510 -0.03749 0.08968 -0.930 -0.251 -9.718 -0.12 -0.01 0.17 0.00 0.00000 -0.57660 0.04657 0.03541 0.81492 0.0040 -0.1170 -0.001 -0.087 0.118 -0.034 -0.134 -0.309 98210
-0.05120 0.02191 -0.05418 -1.223 -0.353 -9.593 -0.11 0.05 0.18 0.00 0.00000 -0.57510 0.04497 0.03692 0.81600 0.0085 -0.1161 -0.002 -0.055 0.166 -0.050 -0.113 -0.331 98310
-0.07585 0.01753 0.05708 -1.099 -0.048 -9.590 -0.10 0.06 0.07 0.00 0.00000 -0.57502 0.04463 0.03371 0.81622 0.0037 -0.1118 -0.002 -0.094 0.095 -0.045 -0.099 -0.353 98410
0.00793 -0.03595 0.05161 -1.073 -0.088 -9.657 -0.08 0.03 -0.01 0.00 0.00000 -0.57749 0.04496 0.03286 0.81448 0.0016 -0.1114 -0.002 -0.081 0.019 -0.035 -0.089 -0.371 98510
0.07714 -0.00738 0.00986 -1.097 -0.118 -9.605 -0.06 0.04 -0.01 0.00 0.00000 -0.57718 0.04490 0.03682 0.81454 0.0082 -0.1159 -0.000 -0.058 0.013 -0.027 -0.080 -0.387 98610
0.03978 -0.01834 0.04795 -1.034 -0.256 -9.527 -0.04 0.04 0.02 0.00 0.00000 -0.57878 0.04211 0.03985 0.81341 0.0162 -0.1148 0.000 -0.006 0.067 -0.032 -0.067 -0.406 98710
-0.10063 -0.08377 0.05019 -1.176 -0.277 -9.521 0.01 0.02 -0.00 0.00 0.00000 -0.58095 0.04525 0.04091 0.81164 0.0139 -0.1213 0.000 0.082 0.078 -0.054 -0.052 -0.433 98810
-0.05257 -0.01933 0.06857 -1.296 -0.022 -9.479 0.09 -0.00 -0.03 0.00 0.00000 -0.58325 0.04881 0.04020 0.80982 0.0082 -0.1262 0.001 0.131 0.064 -0.054 -0.046 -0.455 98910
0.03823 -0.06136 0.09640 -1.194 0.051 -9.512 0.12 -0.04 -0.01 0.00 0.00000 -0.58594 0.05066 0.04200 0.80767 0.0085 -0.1314 0.002 0.143 0.088 -0.041 -0.052 -0.476 99010
0.02014 -0.03650 0.06332 -1.393 0.008 -9.435 0.12 -0.06 0.01 0.00 0.00000 -0.59012 0.05249 0.04503 0.80434 0.0105 -0.1380 0.004 0.156 0.128 -0.037 -0.060 -0.495 99110
-0.04754 -0.01307 0.05067 -1.250 0.062 -9.436 0.08 -0.06 0.01 0.00 0.00000 -0.59072 0.05447 0.04325 0.80387 0.0052 -0.1391 0.004 0.111 0.164 -0.032 -0.071 -0.518 99210
0.00798 -0.02307 0.06221 -1.286 0.158 -9.514 0.01 -0.04 0.01 0.00 0.00000 -0.59513 0.05702 0.04140 0.80052 -0.0016 -0.1410 0.002 0.001 0.201 -0.013 -0.087 -0.550 99310
-0.01047 0.00967 0.02621 -1.444 0.029 -9.514 0.02 -0.01 -0.00 0.00 0.00000 -0.59763 0.05734 0.04140 0.79864 -0.0024 -0.1415 0.000 0.011 0.215 -0.018 -0.089 -0.581 99410
-0.00838 0.02093 0.04566 -1.353 0.043 -9.541 0.06 0.00 -0.04 0.00 0.00000 -0.59992 0.05625 0.04003 0.79706 -0.0037 -0.1381 -0.000 0.050 0.211 -0.025 -0.083 -0.610 99510
0.01910 -0.02695 0.06573 -1.385 0.043 -9.497 0.07 -0.02 -0.07 0.00 0.00000 -0.60277 0.05615 0.04129 0.79485 -0.0020 -0.1395 0.001 0.074 0.211 -0.029 -0.084 -0.639 99610
0.00112 0.00910 0.04663 -1.383 0.135 -9.518 0.08 -0.07 -0.09 0.00 0.00000 -0.60449 0.05693 0.04260 0.79342 -0.0012 -0.1423 0.001 0.076 0.210 -0.030 -0.093 -0.667 99710
0.00571 0.02449 0.04111 -1.459 0.114 -9.519 0.01 -0.04 -0.01 0.00 0.00000 -0.60586 0.05858 0.04068 0.79236 -0.0065 -0.1426 0.001 0.002 0.295 -0.015 -0.106 -0.689 99810
-0.00397 0.02672 0.04140 -1.313 0.116 -9.482 -0.05 -0.00 0.04 0.00 0.00000 -0.60876 0.05753 0.03794 0.79035 -0.0101 -0.1375 0.000 -0.082 0.381 -0.008 -0.113 -0.712 99910
-0.01322 0.00520 0.01947 -1.280 0.172 -9.628 -0.05 -0.02 -0.01 0.00 0.00000 -0.61037 0.05744 0.03708 0.78915 -0.0117 -0.1363 -0.001 -0.107 0.324 -0.006 -0.118 -0.704 100010
0.02166 0.00781 -0.00794 -1.414 0.151 -9.644 -0.04 -0.07 -0.05 0.00 0.00000 -0.61057 0.05858 0.03862 0.78884 -0.0107 -0.1400 -0.000 -0.093 0.269 0.002 -0.129 -0.694 100110
0.01270 -0.04781 0.00426 -1.318 0.037 -9.512 -0.00 -0.06 -0.00 0.00 0.00000 -0.60917 0.05801 0.04032 0.78988 -0.0070 -0.1412 0.001 -0.042 0.326 -0.002 -0.137 -0.706 100210
-0.00951 -0.02040 0.01478 -1.301 -0.003 -9.470 0.03 -0.02 0.05 0.00 0.00000 -0.60981 0.05716 0.04095 0.78941 -0.0051 -0.1406 0.000 0.010 0.412 -0.014 -0.135 -0.725 100310
0.01155 -0.00332 0.01991 -1.441 0.133 -9.425 0.01 -0.02 0.08 0.00 0.00000 -0.60985 0.05864 0.04113 0.78926 -0.0066 -0.1432 -0.000 -0.025 0.434 -0.008 -0.136 -0.720 100410
0.01356 0.02276 -0.01727 -1.407 0.081 -9.485 -0.02 -0.03 0.11 0.00 0.00000 -0.61005 0.05895 0.04071 0.78910 -0.0077 -0.1432 -0.000 -0.063 0.438 0.000 -0.141 -0.702 100510
-0.00016 0.00422 0.01725 -1.392 0.144 -9.445 -0.01 -0.02 0.17 0.00 0.00000 -0.61012 0.05814 0.04099 0.78910 -0.0063 -0.1422 -0.000 -0.074 0.467 0.000 -0.141 -0.682 100610
-0.01969 0.00329 0.01833 -1.375 0.071 -9.443 0.01 0.00 0.25 0.00 0.00000 -0.61193 0.05715 0.03988 0.78783 -0.0071 -0.1393 -0.001 -0.042 0.511 -0.003 -0.133 -0.653 100710
